#
# Results on Thursday September 12 2019 15:19:56 UTC.
# USER AGENT: Mozilla/5.0 (Macintosh; Intel Mac OS X 10_9_5) AppleWebKit/537.36 (KHTML, like Gecko) Chrome/67.0.3396.87 Safari/537.36
# Design number was non-random = 1
#
# Columns below this comment are as follows:
# 1. Time results were received.
# 2. MD5 hash of participant's IP address.
# 3. Controller name.
# 4. Item number.
# 5. Element number.
# 6. Type.
# 7. Group.
# 8. Field name.
# 9. Field value.
1568301597,937f23df9d5c1516a692c889d2208ea5,Form,7,0,consent,NULL,consent,yes
1568301597,937f23df9d5c1516a692c889d2208ea5,Form,7,0,consent,NULL,_REACTION_TIME_,5433
1568301597,937f23df9d5c1516a692c889d2208ea5,Form,1,0,intro,NULL,age,31
1568301597,937f23df9d5c1516a692c889d2208ea5,Form,1,0,intro,NULL,natlang,English
1568301597,937f23df9d5c1516a692c889d2208ea5,Form,1,0,intro,NULL,otherlang,no
1568301597,937f23df9d5c1516a692c889d2208ea5,Form,1,0,intro,NULL,Prolific,599de70d8a6cc5000128f980
1568301597,937f23df9d5c1516a692c889d2208ea5,Form,1,0,intro,NULL,gender,female
1568301597,937f23df9d5c1516a692c889d2208ea5,Form,1,0,intro,NULL,_REACTION_TIME_,20842
1568301597,937f23df9d5c1516a692c889d2208ea5,Form,2,0,intro1,NULL,_REACTION_TIME_,79972
1568301597,937f23df9d5c1516a692c889d2208ea5,Form,3,0,intro2,NULL,_REACTION_TIME_,19966
1568301597,937f23df9d5c1516a692c889d2208ea5,Form,4,0,intro3,NULL,_REACTION_TIME_,25574
# Columns below this comment are as follows:
# 1. Time results were received.
# 2. MD5 hash of participant's IP address.
# 3. Controller name.
# 4. Item number.
# 5. Element number.
# 6. Type.
# 7. Group.
# 8. Sentence (or sentence MD5).
1568301597,937f23df9d5c1516a692c889d2208ea5,MultiSlider,33,0,EveryNot.Some.HowManyBias,9,The teacher has just finished correcting exams. The dean wants an update because the amount of federal funds the school receives depends on the number of students who passed. The teacher tells the dean: "Every student didn't pass."
1568301597,937f23df9d5c1516a692c889d2208ea5,MultiSlider,33,0,EveryNot.Some.HowManyBias,9,How well do the following sentences describe what the speaker meant?
# The lines below this comment are in groups of 2.
# The formats of the lines in each of these groups are as follows:
#
# Line 1:
#     Col. 1: Time results were received.
#     Col. 2: MD5 hash of participant's IP address.
#     Col. 3: Controller name.
#     Col. 4: Item number.
#     Col. 5: Element number.
#     Col. 6: Type.
#     Col. 7: Group.
#     Col. 8: html1.
#     Col. 9: startValue.
#     Col. 10: endValue.
#     Col. 11: value.
# Line 2:
#     Col. 1: Time results were received.
#     Col. 2: MD5 hash of participant's IP address.
#     Col. 3: Controller name.
#     Col. 4: Item number.
#     Col. 5: Element number.
#     Col. 6: Type.
#     Col. 7: Group.
#     Col. 8: html2.
#     Col. 9: startValue.
#     Col. 10: endValue.
#     Col. 11: value.
1568301597,937f23df9d5c1516a692c889d2208ea5,MultiSlider,33,0,EveryNot.Some.HowManyBias,9,<b> All </b> of the students passed the exam,0.00,100.00,4.83
1568301597,937f23df9d5c1516a692c889d2208ea5,MultiSlider,33,0,EveryNot.Some.HowManyBias,9,<b> None </b> of the students passed the exam,0.00,100.00,1.50
# The lines below this comment are in groups of 2.
# The formats of the lines in each of these groups are as follows:
#
# Line 1:
#     Col. 1: Time results were received.
#     Col. 2: MD5 hash of participant's IP address.
#     Col. 3: Controller name.
#     Col. 4: Item number.
#     Col. 5: Element number.
#     Col. 6: Type.
#     Col. 7: Group.
#     Col. 8: html.
#     Col. 9: startValue.
#     Col. 10: endValue.
#     Col. 11: value.
# Line 2:
#     Col. 1: Time results were received.
#     Col. 2: MD5 hash of participant's IP address.
#     Col. 3: Controller name.
#     Col. 4: Item number.
#     Col. 5: Element number.
#     Col. 6: Type.
#     Col. 7: Group.
#     Col. 8: Field name.
#     Col. 9: Field value.
1568301597,937f23df9d5c1516a692c889d2208ea5,MultiSlider,33,0,EveryNot.Some.HowManyBias,9,<b> Some but not all </b> of the students passed the exam,0.00,100.00,96.83
1568301597,937f23df9d5c1516a692c889d2208ea5,MultiSlider,33,0,EveryNot.Some.HowManyBias,9,_REACTION_TIME_,19476
# The lines below this comment are in groups of 2.
# The formats of the lines in each of these groups are as follows:
#
# Line 1:
#     Col. 1: Time results were received.
#     Col. 2: MD5 hash of participant's IP address.
#     Col. 3: Controller name.
#     Col. 4: Item number.
#     Col. 5: Element number.
#     Col. 6: Type.
#     Col. 7: Group.
#     Col. 8: Question (NULL if none).
#     Col. 9: Answer.
#     Col. 10: Whether or not answer was correct (NULL if N/A).
#     Col. 11: Time taken to answer.
# Line 2:
#     Col. 1: Time results were received.
#     Col. 2: MD5 hash of participant's IP address.
#     Col. 3: Controller name.
#     Col. 4: Item number.
#     Col. 5: Element number.
#     Col. 6: Type.
#     Col. 7: Group.
#     Col. 8: Sentence (or sentence MD5).
1568301597,937f23df9d5c1516a692c889d2208ea5,Question,33,1,EveryNot.Some.HowManyBias,9,What type of funds is the dean worrying about?,Federal funds,1,7059
1568301597,937f23df9d5c1516a692c889d2208ea5,MultiSlider,37,0,EveryNot.Some.AllBias,10,The city council organized a spelling bee competition. As the competition began%2C the parents wondered if their kids would be able to get everything correct. The host announced%2C "Every answer wasn't correct."
# The lines below this comment are in groups of 2.
# The formats of the lines in each of these groups are as follows:
#
# Line 1:
#     Col. 1: Time results were received.
#     Col. 2: MD5 hash of participant's IP address.
#     Col. 3: Controller name.
#     Col. 4: Item number.
#     Col. 5: Element number.
#     Col. 6: Type.
#     Col. 7: Group.
#     Col. 8: Sentence (or sentence MD5).
# Line 2:
#     Col. 1: Time results were received.
#     Col. 2: MD5 hash of participant's IP address.
#     Col. 3: Controller name.
#     Col. 4: Item number.
#     Col. 5: Element number.
#     Col. 6: Type.
#     Col. 7: Group.
#     Col. 8: html1.
#     Col. 9: startValue.
#     Col. 10: endValue.
#     Col. 11: value.
1568301597,937f23df9d5c1516a692c889d2208ea5,MultiSlider,37,0,EveryNot.Some.AllBias,10,How well do the following sentences describe what the speaker meant?
1568301597,937f23df9d5c1516a692c889d2208ea5,MultiSlider,37,0,EveryNot.Some.AllBias,10,The kids answered <b> some but not all </b>of the questions correctly,0.00,100.00,92.83
# The lines below this comment are in groups of 2.
# The formats of the lines in each of these groups are as follows:
#
# Line 1:
#     Col. 1: Time results were received.
#     Col. 2: MD5 hash of participant's IP address.
#     Col. 3: Controller name.
#     Col. 4: Item number.
#     Col. 5: Element number.
#     Col. 6: Type.
#     Col. 7: Group.
#     Col. 8: html2.
#     Col. 9: startValue.
#     Col. 10: endValue.
#     Col. 11: value.
# Line 2:
#     Col. 1: Time results were received.
#     Col. 2: MD5 hash of participant's IP address.
#     Col. 3: Controller name.
#     Col. 4: Item number.
#     Col. 5: Element number.
#     Col. 6: Type.
#     Col. 7: Group.
#     Col. 8: html.
#     Col. 9: startValue.
#     Col. 10: endValue.
#     Col. 11: value.
1568301597,937f23df9d5c1516a692c889d2208ea5,MultiSlider,37,0,EveryNot.Some.AllBias,10,The kids answered <b> all </b>of the questions correctly,0.00,100.00,1.50
1568301597,937f23df9d5c1516a692c889d2208ea5,MultiSlider,37,0,EveryNot.Some.AllBias,10,The kids didn't answer <b> any </b>of the questions correctly,0.00,100.00,5.17
# The lines below this comment are in groups of 2.
# The formats of the lines in each of these groups are as follows:
#
# Line 1:
#     Col. 1: Time results were received.
#     Col. 2: MD5 hash of participant's IP address.
#     Col. 3: Controller name.
#     Col. 4: Item number.
#     Col. 5: Element number.
#     Col. 6: Type.
#     Col. 7: Group.
#     Col. 8: Field name.
#     Col. 9: Field value.
# Line 2:
#     Col. 1: Time results were received.
#     Col. 2: MD5 hash of participant's IP address.
#     Col. 3: Controller name.
#     Col. 4: Item number.
#     Col. 5: Element number.
#     Col. 6: Type.
#     Col. 7: Group.
#     Col. 8: Sentence (or sentence MD5).
1568301597,937f23df9d5c1516a692c889d2208ea5,MultiSlider,37,0,EveryNot.Some.AllBias,10,_REACTION_TIME_,17768
1568301597,937f23df9d5c1516a692c889d2208ea5,MultiSlider,28,0,EveryNot.All.AllBias,7,The nursery normally changes infants' diapers before they go to nap. This afternoon%2C a health inspector wanted to make sure all of the infants had been changed before nap time. The nurse reported%2C "Every infant hasn't been changed."
# The lines below this comment are in groups of 2.
# The formats of the lines in each of these groups are as follows:
#
# Line 1:
#     Col. 1: Time results were received.
#     Col. 2: MD5 hash of participant's IP address.
#     Col. 3: Controller name.
#     Col. 4: Item number.
#     Col. 5: Element number.
#     Col. 6: Type.
#     Col. 7: Group.
#     Col. 8: Sentence (or sentence MD5).
# Line 2:
#     Col. 1: Time results were received.
#     Col. 2: MD5 hash of participant's IP address.
#     Col. 3: Controller name.
#     Col. 4: Item number.
#     Col. 5: Element number.
#     Col. 6: Type.
#     Col. 7: Group.
#     Col. 8: html1.
#     Col. 9: startValue.
#     Col. 10: endValue.
#     Col. 11: value.
1568301597,937f23df9d5c1516a692c889d2208ea5,MultiSlider,28,0,EveryNot.All.AllBias,7,How well do the following sentences describe what the speaker meant?
1568301597,937f23df9d5c1516a692c889d2208ea5,MultiSlider,28,0,EveryNot.All.AllBias,7,<b> Some but not all </b> of the infants have been changed,0.00,100.00,93.83
# The lines below this comment are in groups of 2.
# The formats of the lines in each of these groups are as follows:
#
# Line 1:
#     Col. 1: Time results were received.
#     Col. 2: MD5 hash of participant's IP address.
#     Col. 3: Controller name.
#     Col. 4: Item number.
#     Col. 5: Element number.
#     Col. 6: Type.
#     Col. 7: Group.
#     Col. 8: html2.
#     Col. 9: startValue.
#     Col. 10: endValue.
#     Col. 11: value.
# Line 2:
#     Col. 1: Time results were received.
#     Col. 2: MD5 hash of participant's IP address.
#     Col. 3: Controller name.
#     Col. 4: Item number.
#     Col. 5: Element number.
#     Col. 6: Type.
#     Col. 7: Group.
#     Col. 8: html.
#     Col. 9: startValue.
#     Col. 10: endValue.
#     Col. 11: value.
1568301597,937f23df9d5c1516a692c889d2208ea5,MultiSlider,28,0,EveryNot.All.AllBias,7,<b> All </b> of the infants have been changed,0.00,100.00,4.83
1568301597,937f23df9d5c1516a692c889d2208ea5,MultiSlider,28,0,EveryNot.All.AllBias,7,<b> None </b> of the infants have been changed,0.00,100.00,6.50
# The lines below this comment are in groups of 2.
# The formats of the lines in each of these groups are as follows:
#
# Line 1:
#     Col. 1: Time results were received.
#     Col. 2: MD5 hash of participant's IP address.
#     Col. 3: Controller name.
#     Col. 4: Item number.
#     Col. 5: Element number.
#     Col. 6: Type.
#     Col. 7: Group.
#     Col. 8: Field name.
#     Col. 9: Field value.
# Line 2:
#     Col. 1: Time results were received.
#     Col. 2: MD5 hash of participant's IP address.
#     Col. 3: Controller name.
#     Col. 4: Item number.
#     Col. 5: Element number.
#     Col. 6: Type.
#     Col. 7: Group.
#     Col. 8: Question (NULL if none).
#     Col. 9: Answer.
#     Col. 10: Whether or not answer was correct (NULL if N/A).
#     Col. 11: Time taken to answer.
1568301597,937f23df9d5c1516a692c889d2208ea5,MultiSlider,28,0,EveryNot.All.AllBias,7,_REACTION_TIME_,16736
1568301597,937f23df9d5c1516a692c889d2208ea5,Question,28,1,EveryNot.All.AllBias,7,When does the disper usually get changed?,Before a nap,1,5646
# Columns below this comment are as follows:
# 1. Time results were received.
# 2. MD5 hash of participant's IP address.
# 3. Controller name.
# 4. Item number.
# 5. Element number.
# 6. Type.
# 7. Group.
# 8. Sentence (or sentence MD5).
1568301597,937f23df9d5c1516a692c889d2208ea5,MultiSlider,69,0,EveryNot.None.HowManyBias,21,Julia is a straight-A student. This semester%2C she enrolled for the easiest classes. After the semester%2C her mother phoned her to find out how her daughter had performed this semester. Julia said: "Every class wasn't a fail."
1568301597,937f23df9d5c1516a692c889d2208ea5,MultiSlider,69,0,EveryNot.None.HowManyBias,21,How well do the following sentences describe what the speaker meant?
# The lines below this comment are in groups of 2.
# The formats of the lines in each of these groups are as follows:
#
# Line 1:
#     Col. 1: Time results were received.
#     Col. 2: MD5 hash of participant's IP address.
#     Col. 3: Controller name.
#     Col. 4: Item number.
#     Col. 5: Element number.
#     Col. 6: Type.
#     Col. 7: Group.
#     Col. 8: html1.
#     Col. 9: startValue.
#     Col. 10: endValue.
#     Col. 11: value.
# Line 2:
#     Col. 1: Time results were received.
#     Col. 2: MD5 hash of participant's IP address.
#     Col. 3: Controller name.
#     Col. 4: Item number.
#     Col. 5: Element number.
#     Col. 6: Type.
#     Col. 7: Group.
#     Col. 8: html2.
#     Col. 9: startValue.
#     Col. 10: endValue.
#     Col. 11: value.
1568301597,937f23df9d5c1516a692c889d2208ea5,MultiSlider,69,0,EveryNot.None.HowManyBias,21, Julia failed<b> all </b>of the classes,0.00,100.00,3.17
1568301597,937f23df9d5c1516a692c889d2208ea5,MultiSlider,69,0,EveryNot.None.HowManyBias,21, Julia didn't fail<b> any </b>of the classes,0.00,100.00,32.83
# The lines below this comment are in groups of 2.
# The formats of the lines in each of these groups are as follows:
#
# Line 1:
#     Col. 1: Time results were received.
#     Col. 2: MD5 hash of participant's IP address.
#     Col. 3: Controller name.
#     Col. 4: Item number.
#     Col. 5: Element number.
#     Col. 6: Type.
#     Col. 7: Group.
#     Col. 8: html.
#     Col. 9: startValue.
#     Col. 10: endValue.
#     Col. 11: value.
# Line 2:
#     Col. 1: Time results were received.
#     Col. 2: MD5 hash of participant's IP address.
#     Col. 3: Controller name.
#     Col. 4: Item number.
#     Col. 5: Element number.
#     Col. 6: Type.
#     Col. 7: Group.
#     Col. 8: Field name.
#     Col. 9: Field value.
1568301597,937f23df9d5c1516a692c889d2208ea5,MultiSlider,69,0,EveryNot.None.HowManyBias,21, Julia failed<b> some but not all </b>of the classes,0.00,100.00,62.83
1568301597,937f23df9d5c1516a692c889d2208ea5,MultiSlider,69,0,EveryNot.None.HowManyBias,21,_REACTION_TIME_,20425
# The lines below this comment are in groups of 2.
# The formats of the lines in each of these groups are as follows:
#
# Line 1:
#     Col. 1: Time results were received.
#     Col. 2: MD5 hash of participant's IP address.
#     Col. 3: Controller name.
#     Col. 4: Item number.
#     Col. 5: Element number.
#     Col. 6: Type.
#     Col. 7: Group.
#     Col. 8: Question (NULL if none).
#     Col. 9: Answer.
#     Col. 10: Whether or not answer was correct (NULL if N/A).
#     Col. 11: Time taken to answer.
# Line 2:
#     Col. 1: Time results were received.
#     Col. 2: MD5 hash of participant's IP address.
#     Col. 3: Controller name.
#     Col. 4: Item number.
#     Col. 5: Element number.
#     Col. 6: Type.
#     Col. 7: Group.
#     Col. 8: Sentence (or sentence MD5).
1568301597,937f23df9d5c1516a692c889d2208ea5,Question,69,1,EveryNot.None.HowManyBias,21,What classes did Julia enroll for?,The easy ones,1,2301
1568301597,937f23df9d5c1516a692c889d2208ea5,MultiSlider,55,0,EveryNot.Some.AllBias,16,A tech start-up is facing some financial issues. During an HR meeting%2C the board debated whether they had to lay off all of their employees. The HR announced%2C "Every employee isn't going to be laid off."
# The lines below this comment are in groups of 2.
# The formats of the lines in each of these groups are as follows:
#
# Line 1:
#     Col. 1: Time results were received.
#     Col. 2: MD5 hash of participant's IP address.
#     Col. 3: Controller name.
#     Col. 4: Item number.
#     Col. 5: Element number.
#     Col. 6: Type.
#     Col. 7: Group.
#     Col. 8: Sentence (or sentence MD5).
# Line 2:
#     Col. 1: Time results were received.
#     Col. 2: MD5 hash of participant's IP address.
#     Col. 3: Controller name.
#     Col. 4: Item number.
#     Col. 5: Element number.
#     Col. 6: Type.
#     Col. 7: Group.
#     Col. 8: html1.
#     Col. 9: startValue.
#     Col. 10: endValue.
#     Col. 11: value.
1568301597,937f23df9d5c1516a692c889d2208ea5,MultiSlider,55,0,EveryNot.Some.AllBias,16,How well do the following sentences describe what the speaker meant?
1568301597,937f23df9d5c1516a692c889d2208ea5,MultiSlider,55,0,EveryNot.Some.AllBias,16,<b> Some but not all </b> of the employees will be fired,0.00,100.00,79.83
# The lines below this comment are in groups of 2.
# The formats of the lines in each of these groups are as follows:
#
# Line 1:
#     Col. 1: Time results were received.
#     Col. 2: MD5 hash of participant's IP address.
#     Col. 3: Controller name.
#     Col. 4: Item number.
#     Col. 5: Element number.
#     Col. 6: Type.
#     Col. 7: Group.
#     Col. 8: html2.
#     Col. 9: startValue.
#     Col. 10: endValue.
#     Col. 11: value.
# Line 2:
#     Col. 1: Time results were received.
#     Col. 2: MD5 hash of participant's IP address.
#     Col. 3: Controller name.
#     Col. 4: Item number.
#     Col. 5: Element number.
#     Col. 6: Type.
#     Col. 7: Group.
#     Col. 8: html.
#     Col. 9: startValue.
#     Col. 10: endValue.
#     Col. 11: value.
1568301597,937f23df9d5c1516a692c889d2208ea5,MultiSlider,55,0,EveryNot.Some.AllBias,16,<b> All </b> of the employees will be fired,0.00,100.00,5.83
1568301597,937f23df9d5c1516a692c889d2208ea5,MultiSlider,55,0,EveryNot.Some.AllBias,16,<b> None </b> of the employees will be fired,0.00,100.00,3.17
# The lines below this comment are in groups of 2.
# The formats of the lines in each of these groups are as follows:
#
# Line 1:
#     Col. 1: Time results were received.
#     Col. 2: MD5 hash of participant's IP address.
#     Col. 3: Controller name.
#     Col. 4: Item number.
#     Col. 5: Element number.
#     Col. 6: Type.
#     Col. 7: Group.
#     Col. 8: Field name.
#     Col. 9: Field value.
# Line 2:
#     Col. 1: Time results were received.
#     Col. 2: MD5 hash of participant's IP address.
#     Col. 3: Controller name.
#     Col. 4: Item number.
#     Col. 5: Element number.
#     Col. 6: Type.
#     Col. 7: Group.
#     Col. 8: Question (NULL if none).
#     Col. 9: Answer.
#     Col. 10: Whether or not answer was correct (NULL if N/A).
#     Col. 11: Time taken to answer.
1568301597,937f23df9d5c1516a692c889d2208ea5,MultiSlider,55,0,EveryNot.Some.AllBias,16,_REACTION_TIME_,12977
1568301597,937f23df9d5c1516a692c889d2208ea5,Question,55,1,EveryNot.Some.AllBias,16,What did the board discuss during the meeting?,Whether everyone will be laid off,1,5189
# Columns below this comment are as follows:
# 1. Time results were received.
# 2. MD5 hash of participant's IP address.
# 3. Controller name.
# 4. Item number.
# 5. Element number.
# 6. Type.
# 7. Group.
# 8. Sentence (or sentence MD5).
1568301597,937f23df9d5c1516a692c889d2208ea5,MultiSlider,50,0,EveryNot.Some.NoneBias,14,Roy recently started a career as a professional gamer. A journalist interviewed him%2C and asked if he had already been invited to any of the five Major League Gaming tournaments. He admitted%2C "Every Major League Gaming tournament hasn't invited me."
1568301597,937f23df9d5c1516a692c889d2208ea5,MultiSlider,50,0,EveryNot.Some.NoneBias,14,How well do the following sentences describe what the speaker meant?
# The lines below this comment are in groups of 2.
# The formats of the lines in each of these groups are as follows:
#
# Line 1:
#     Col. 1: Time results were received.
#     Col. 2: MD5 hash of participant's IP address.
#     Col. 3: Controller name.
#     Col. 4: Item number.
#     Col. 5: Element number.
#     Col. 6: Type.
#     Col. 7: Group.
#     Col. 8: html1.
#     Col. 9: startValue.
#     Col. 10: endValue.
#     Col. 11: value.
# Line 2:
#     Col. 1: Time results were received.
#     Col. 2: MD5 hash of participant's IP address.
#     Col. 3: Controller name.
#     Col. 4: Item number.
#     Col. 5: Element number.
#     Col. 6: Type.
#     Col. 7: Group.
#     Col. 8: html2.
#     Col. 9: startValue.
#     Col. 10: endValue.
#     Col. 11: value.
1568301597,937f23df9d5c1516a692c889d2208ea5,MultiSlider,50,0,EveryNot.Some.NoneBias,14, Roy hasn't been invited to<b> any </b>of the Major League Gaming tournaments,0.00,100.00,13.17
1568301597,937f23df9d5c1516a692c889d2208ea5,MultiSlider,50,0,EveryNot.Some.NoneBias,14, Roy has been invited to<b> some but not all </b>of the Major League Gaming tournaments,0.00,100.00,23.50
# The lines below this comment are in groups of 2.
# The formats of the lines in each of these groups are as follows:
#
# Line 1:
#     Col. 1: Time results were received.
#     Col. 2: MD5 hash of participant's IP address.
#     Col. 3: Controller name.
#     Col. 4: Item number.
#     Col. 5: Element number.
#     Col. 6: Type.
#     Col. 7: Group.
#     Col. 8: html2.
#     Col. 9: startValue.
#     Col. 10: endValue.
#     Col. 11: value.
# Line 2:
#     Col. 1: Time results were received.
#     Col. 2: MD5 hash of participant's IP address.
#     Col. 3: Controller name.
#     Col. 4: Item number.
#     Col. 5: Element number.
#     Col. 6: Type.
#     Col. 7: Group.
#     Col. 8: html.
#     Col. 9: startValue.
#     Col. 10: endValue.
#     Col. 11: value.
1568301597,937f23df9d5c1516a692c889d2208ea5,MultiSlider,50,0,EveryNot.Some.NoneBias,14, Roy has been invited to<b> some but not all </b>of the Major League Gaming tournaments,0.00,100.00,49.83
1568301597,937f23df9d5c1516a692c889d2208ea5,MultiSlider,50,0,EveryNot.Some.NoneBias,14, Roy has been invited to<b> all </b>of the Major League Gaming tournaments,0.00,100.00,5.50
# The lines below this comment are in groups of 2.
# The formats of the lines in each of these groups are as follows:
#
# Line 1:
#     Col. 1: Time results were received.
#     Col. 2: MD5 hash of participant's IP address.
#     Col. 3: Controller name.
#     Col. 4: Item number.
#     Col. 5: Element number.
#     Col. 6: Type.
#     Col. 7: Group.
#     Col. 8: Field name.
#     Col. 9: Field value.
# Line 2:
#     Col. 1: Time results were received.
#     Col. 2: MD5 hash of participant's IP address.
#     Col. 3: Controller name.
#     Col. 4: Item number.
#     Col. 5: Element number.
#     Col. 6: Type.
#     Col. 7: Group.
#     Col. 8: Sentence (or sentence MD5).
1568301597,937f23df9d5c1516a692c889d2208ea5,MultiSlider,50,0,EveryNot.Some.NoneBias,14,_REACTION_TIME_,23953
1568301597,937f23df9d5c1516a692c889d2208ea5,MultiSlider,41,0,EveryNot.Some.NoneBias,11,The local community organized a flea market last weekend. The sellers  all hoped that they could close even just one sale they dealt with. They concluded%2C "Every sale wasn't closed."
# The lines below this comment are in groups of 2.
# The formats of the lines in each of these groups are as follows:
#
# Line 1:
#     Col. 1: Time results were received.
#     Col. 2: MD5 hash of participant's IP address.
#     Col. 3: Controller name.
#     Col. 4: Item number.
#     Col. 5: Element number.
#     Col. 6: Type.
#     Col. 7: Group.
#     Col. 8: Sentence (or sentence MD5).
# Line 2:
#     Col. 1: Time results were received.
#     Col. 2: MD5 hash of participant's IP address.
#     Col. 3: Controller name.
#     Col. 4: Item number.
#     Col. 5: Element number.
#     Col. 6: Type.
#     Col. 7: Group.
#     Col. 8: html1.
#     Col. 9: startValue.
#     Col. 10: endValue.
#     Col. 11: value.
1568301597,937f23df9d5c1516a692c889d2208ea5,MultiSlider,41,0,EveryNot.Some.NoneBias,11,How well do the following sentences describe what the speaker meant?
1568301597,937f23df9d5c1516a692c889d2208ea5,MultiSlider,41,0,EveryNot.Some.NoneBias,11,The sellers didn't close <b> any </b>of the sales,0.00,100.00,10.50
# The lines below this comment are in groups of 2.
# The formats of the lines in each of these groups are as follows:
#
# Line 1:
#     Col. 1: Time results were received.
#     Col. 2: MD5 hash of participant's IP address.
#     Col. 3: Controller name.
#     Col. 4: Item number.
#     Col. 5: Element number.
#     Col. 6: Type.
#     Col. 7: Group.
#     Col. 8: html2.
#     Col. 9: startValue.
#     Col. 10: endValue.
#     Col. 11: value.
# Line 2:
#     Col. 1: Time results were received.
#     Col. 2: MD5 hash of participant's IP address.
#     Col. 3: Controller name.
#     Col. 4: Item number.
#     Col. 5: Element number.
#     Col. 6: Type.
#     Col. 7: Group.
#     Col. 8: html.
#     Col. 9: startValue.
#     Col. 10: endValue.
#     Col. 11: value.
1568301597,937f23df9d5c1516a692c889d2208ea5,MultiSlider,41,0,EveryNot.Some.NoneBias,11,The sellers closed <b> some but not all </b>of the sales,0.00,100.00,78.83
1568301597,937f23df9d5c1516a692c889d2208ea5,MultiSlider,41,0,EveryNot.Some.NoneBias,11,The sellers closed <b> all </b>of the sales,0.00,100.00,10.83
# The lines below this comment are in groups of 2.
# The formats of the lines in each of these groups are as follows:
#
# Line 1:
#     Col. 1: Time results were received.
#     Col. 2: MD5 hash of participant's IP address.
#     Col. 3: Controller name.
#     Col. 4: Item number.
#     Col. 5: Element number.
#     Col. 6: Type.
#     Col. 7: Group.
#     Col. 8: Field name.
#     Col. 9: Field value.
# Line 2:
#     Col. 1: Time results were received.
#     Col. 2: MD5 hash of participant's IP address.
#     Col. 3: Controller name.
#     Col. 4: Item number.
#     Col. 5: Element number.
#     Col. 6: Type.
#     Col. 7: Group.
#     Col. 8: Question (NULL if none).
#     Col. 9: Answer.
#     Col. 10: Whether or not answer was correct (NULL if N/A).
#     Col. 11: Time taken to answer.
1568301597,937f23df9d5c1516a692c889d2208ea5,MultiSlider,41,0,EveryNot.Some.NoneBias,11,_REACTION_TIME_,15280
1568301597,937f23df9d5c1516a692c889d2208ea5,Question,41,1,EveryNot.Some.NoneBias,11,What was organized last weekend?,A flea market,1,4260
# Columns below this comment are as follows:
# 1. Time results were received.
# 2. MD5 hash of participant's IP address.
# 3. Controller name.
# 4. Item number.
# 5. Element number.
# 6. Type.
# 7. Group.
# 8. Sentence (or sentence MD5).
1568301597,937f23df9d5c1516a692c889d2208ea5,MultiSlider,51,0,EveryNot.Some.HowManyBias,15,Barney has been submitting recipes to a famous cooking website for some time now. His partner asked how successful his submissions had been. He said: "Every submission hasn't been published."
1568301597,937f23df9d5c1516a692c889d2208ea5,MultiSlider,51,0,EveryNot.Some.HowManyBias,15,How well do the following sentences describe what the speaker meant?
# The lines below this comment are in groups of 2.
# The formats of the lines in each of these groups are as follows:
#
# Line 1:
#     Col. 1: Time results were received.
#     Col. 2: MD5 hash of participant's IP address.
#     Col. 3: Controller name.
#     Col. 4: Item number.
#     Col. 5: Element number.
#     Col. 6: Type.
#     Col. 7: Group.
#     Col. 8: html1.
#     Col. 9: startValue.
#     Col. 10: endValue.
#     Col. 11: value.
# Line 2:
#     Col. 1: Time results were received.
#     Col. 2: MD5 hash of participant's IP address.
#     Col. 3: Controller name.
#     Col. 4: Item number.
#     Col. 5: Element number.
#     Col. 6: Type.
#     Col. 7: Group.
#     Col. 8: html2.
#     Col. 9: startValue.
#     Col. 10: endValue.
#     Col. 11: value.
1568301597,937f23df9d5c1516a692c889d2208ea5,MultiSlider,51,0,EveryNot.Some.HowManyBias,15,<b> All </b> of Barney's submissions have been published,0.00,100.00,1.83
1568301597,937f23df9d5c1516a692c889d2208ea5,MultiSlider,51,0,EveryNot.Some.HowManyBias,15,<b> None </b> of Barney's submissions have been published,0.00,100.00,1.50
# Columns below this comment are as follows:
# 1. Time results were received.
# 2. MD5 hash of participant's IP address.
# 3. Controller name.
# 4. Item number.
# 5. Element number.
# 6. Type.
# 7. Group.
# 8. html.
# 9. startValue.
# 10. endValue.
# 11. value.
1568301597,937f23df9d5c1516a692c889d2208ea5,MultiSlider,51,0,EveryNot.Some.HowManyBias,15,<b> Some but not all </b> of Barney's submissions have been published,0.00,100.00,67.83
1568301597,937f23df9d5c1516a692c889d2208ea5,MultiSlider,51,0,EveryNot.Some.HowManyBias,15,<b> Some but not all </b> of Barney's submissions have been published,0.00,100.00,75.83
# The lines below this comment are in groups of 2.
# The formats of the lines in each of these groups are as follows:
#
# Line 1:
#     Col. 1: Time results were received.
#     Col. 2: MD5 hash of participant's IP address.
#     Col. 3: Controller name.
#     Col. 4: Item number.
#     Col. 5: Element number.
#     Col. 6: Type.
#     Col. 7: Group.
#     Col. 8: Field name.
#     Col. 9: Field value.
# Line 2:
#     Col. 1: Time results were received.
#     Col. 2: MD5 hash of participant's IP address.
#     Col. 3: Controller name.
#     Col. 4: Item number.
#     Col. 5: Element number.
#     Col. 6: Type.
#     Col. 7: Group.
#     Col. 8: Question (NULL if none).
#     Col. 9: Answer.
#     Col. 10: Whether or not answer was correct (NULL if N/A).
#     Col. 11: Time taken to answer.
1568301597,937f23df9d5c1516a692c889d2208ea5,MultiSlider,51,0,EveryNot.Some.HowManyBias,15,_REACTION_TIME_,16794
1568301597,937f23df9d5c1516a692c889d2208ea5,Question,51,1,EveryNot.Some.HowManyBias,15,What did Barney submit to the website?,His recipes,1,2900
# Columns below this comment are as follows:
# 1. Time results were received.
# 2. MD5 hash of participant's IP address.
# 3. Controller name.
# 4. Item number.
# 5. Element number.
# 6. Type.
# 7. Group.
# 8. Sentence (or sentence MD5).
1568301597,937f23df9d5c1516a692c889d2208ea5,MultiSlider,59,0,EveryNot.None.NoneBias,17,Jack is an incompetent homicide detective trying to solve three recent murders. His boss tells him that the newspapers will be all over him if he fails to solve any of these murders. Weeks later%2C Jack reported%2C "Every case hasn't been solved."
1568301597,937f23df9d5c1516a692c889d2208ea5,MultiSlider,59,0,EveryNot.None.NoneBias,17,How well do the following sentences describe what the speaker meant?
# The lines below this comment are in groups of 2.
# The formats of the lines in each of these groups are as follows:
#
# Line 1:
#     Col. 1: Time results were received.
#     Col. 2: MD5 hash of participant's IP address.
#     Col. 3: Controller name.
#     Col. 4: Item number.
#     Col. 5: Element number.
#     Col. 6: Type.
#     Col. 7: Group.
#     Col. 8: html1.
#     Col. 9: startValue.
#     Col. 10: endValue.
#     Col. 11: value.
# Line 2:
#     Col. 1: Time results were received.
#     Col. 2: MD5 hash of participant's IP address.
#     Col. 3: Controller name.
#     Col. 4: Item number.
#     Col. 5: Element number.
#     Col. 6: Type.
#     Col. 7: Group.
#     Col. 8: html2.
#     Col. 9: startValue.
#     Col. 10: endValue.
#     Col. 11: value.
1568301597,937f23df9d5c1516a692c889d2208ea5,MultiSlider,59,0,EveryNot.None.NoneBias,17, Jack didn't solve <b> any </b>of the cases,0.00,100.00,35.17
1568301597,937f23df9d5c1516a692c889d2208ea5,MultiSlider,59,0,EveryNot.None.NoneBias,17, Jack solved <b> some but not all </b>of the cases,0.00,100.00,73.83
# The lines below this comment are in groups of 2.
# The formats of the lines in each of these groups are as follows:
#
# Line 1:
#     Col. 1: Time results were received.
#     Col. 2: MD5 hash of participant's IP address.
#     Col. 3: Controller name.
#     Col. 4: Item number.
#     Col. 5: Element number.
#     Col. 6: Type.
#     Col. 7: Group.
#     Col. 8: html2.
#     Col. 9: startValue.
#     Col. 10: endValue.
#     Col. 11: value.
# Line 2:
#     Col. 1: Time results were received.
#     Col. 2: MD5 hash of participant's IP address.
#     Col. 3: Controller name.
#     Col. 4: Item number.
#     Col. 5: Element number.
#     Col. 6: Type.
#     Col. 7: Group.
#     Col. 8: html.
#     Col. 9: startValue.
#     Col. 10: endValue.
#     Col. 11: value.
1568301597,937f23df9d5c1516a692c889d2208ea5,MultiSlider,59,0,EveryNot.None.NoneBias,17, Jack solved <b> some but not all </b>of the cases,0.00,100.00,61.50
1568301597,937f23df9d5c1516a692c889d2208ea5,MultiSlider,59,0,EveryNot.None.NoneBias,17, Jack solved <b> all </b>of the cases,0.00,100.00,2.50
# The lines below this comment are in groups of 2.
# The formats of the lines in each of these groups are as follows:
#
# Line 1:
#     Col. 1: Time results were received.
#     Col. 2: MD5 hash of participant's IP address.
#     Col. 3: Controller name.
#     Col. 4: Item number.
#     Col. 5: Element number.
#     Col. 6: Type.
#     Col. 7: Group.
#     Col. 8: Field name.
#     Col. 9: Field value.
# Line 2:
#     Col. 1: Time results were received.
#     Col. 2: MD5 hash of participant's IP address.
#     Col. 3: Controller name.
#     Col. 4: Item number.
#     Col. 5: Element number.
#     Col. 6: Type.
#     Col. 7: Group.
#     Col. 8: Question (NULL if none).
#     Col. 9: Answer.
#     Col. 10: Whether or not answer was correct (NULL if N/A).
#     Col. 11: Time taken to answer.
1568301597,937f23df9d5c1516a692c889d2208ea5,MultiSlider,59,0,EveryNot.None.NoneBias,17,_REACTION_TIME_,16267
1568301597,937f23df9d5c1516a692c889d2208ea5,Question,59,1,EveryNot.None.NoneBias,17,What is Jack's specialization?,Homicide,1,1685
# Columns below this comment are as follows:
# 1. Time results were received.
# 2. MD5 hash of participant's IP address.
# 3. Controller name.
# 4. Item number.
# 5. Element number.
# 6. Type.
# 7. Group.
# 8. Sentence (or sentence MD5).
1568301597,937f23df9d5c1516a692c889d2208ea5,MultiSlider,60,0,EveryNot.None.HowManyBias,18,Paul lives on a sheep farm his parents bought for him%2C but plays video games all day. His parents called him to remind him that his living situation is dependent on the number of sheep he sells. Paul told them%2C "Every sheep won't be sold."
1568301597,937f23df9d5c1516a692c889d2208ea5,MultiSlider,60,0,EveryNot.None.HowManyBias,18,How well do the following sentences describe what the speaker meant?
# The lines below this comment are in groups of 2.
# The formats of the lines in each of these groups are as follows:
#
# Line 1:
#     Col. 1: Time results were received.
#     Col. 2: MD5 hash of participant's IP address.
#     Col. 3: Controller name.
#     Col. 4: Item number.
#     Col. 5: Element number.
#     Col. 6: Type.
#     Col. 7: Group.
#     Col. 8: html1.
#     Col. 9: startValue.
#     Col. 10: endValue.
#     Col. 11: value.
# Line 2:
#     Col. 1: Time results were received.
#     Col. 2: MD5 hash of participant's IP address.
#     Col. 3: Controller name.
#     Col. 4: Item number.
#     Col. 5: Element number.
#     Col. 6: Type.
#     Col. 7: Group.
#     Col. 8: html2.
#     Col. 9: startValue.
#     Col. 10: endValue.
#     Col. 11: value.
1568301597,937f23df9d5c1516a692c889d2208ea5,MultiSlider,60,0,EveryNot.None.HowManyBias,18,<b> All </b> of the sheep will be sold,0.00,100.00,2.83
1568301597,937f23df9d5c1516a692c889d2208ea5,MultiSlider,60,0,EveryNot.None.HowManyBias,18,<b> None </b> of the sheep will be sold,0.00,100.00,42.17
# The lines below this comment are in groups of 2.
# The formats of the lines in each of these groups are as follows:
#
# Line 1:
#     Col. 1: Time results were received.
#     Col. 2: MD5 hash of participant's IP address.
#     Col. 3: Controller name.
#     Col. 4: Item number.
#     Col. 5: Element number.
#     Col. 6: Type.
#     Col. 7: Group.
#     Col. 8: html.
#     Col. 9: startValue.
#     Col. 10: endValue.
#     Col. 11: value.
# Line 2:
#     Col. 1: Time results were received.
#     Col. 2: MD5 hash of participant's IP address.
#     Col. 3: Controller name.
#     Col. 4: Item number.
#     Col. 5: Element number.
#     Col. 6: Type.
#     Col. 7: Group.
#     Col. 8: Field name.
#     Col. 9: Field value.
1568301597,937f23df9d5c1516a692c889d2208ea5,MultiSlider,60,0,EveryNot.None.HowManyBias,18,<b> Some but not all </b> of the sheep will be sold,0.00,100.00,62.83
1568301597,937f23df9d5c1516a692c889d2208ea5,MultiSlider,60,0,EveryNot.None.HowManyBias,18,_REACTION_TIME_,16514
# Columns below this comment are as follows:
# 1. Time results were received.
# 2. MD5 hash of participant's IP address.
# 3. Controller name.
# 4. Item number.
# 5. Element number.
# 6. Type.
# 7. Group.
# 8. Sentence (or sentence MD5).
1568301597,937f23df9d5c1516a692c889d2208ea5,MultiSlider,68,0,EveryNot.None.NoneBias,20,Helena is a mediocre athlete who made a resolution to win three Olympic medals this year. Her coach thought that she would be honored if she could win even a single medal. Afterwards%2C the coach admitted%2C "Every medal wasn't won."
1568301597,937f23df9d5c1516a692c889d2208ea5,MultiSlider,68,0,EveryNot.None.NoneBias,20,How well do the following sentences describe what the speaker meant?
# The lines below this comment are in groups of 2.
# The formats of the lines in each of these groups are as follows:
#
# Line 1:
#     Col. 1: Time results were received.
#     Col. 2: MD5 hash of participant's IP address.
#     Col. 3: Controller name.
#     Col. 4: Item number.
#     Col. 5: Element number.
#     Col. 6: Type.
#     Col. 7: Group.
#     Col. 8: html1.
#     Col. 9: startValue.
#     Col. 10: endValue.
#     Col. 11: value.
# Line 2:
#     Col. 1: Time results were received.
#     Col. 2: MD5 hash of participant's IP address.
#     Col. 3: Controller name.
#     Col. 4: Item number.
#     Col. 5: Element number.
#     Col. 6: Type.
#     Col. 7: Group.
#     Col. 8: html2.
#     Col. 9: startValue.
#     Col. 10: endValue.
#     Col. 11: value.
1568301597,937f23df9d5c1516a692c889d2208ea5,MultiSlider,68,0,EveryNot.None.NoneBias,20, Helena didn't win<b> any </b>of the medals,0.00,100.00,29.17
1568301597,937f23df9d5c1516a692c889d2208ea5,MultiSlider,68,0,EveryNot.None.NoneBias,20, Helena won<b> some but not all </b>of the medals,0.00,100.00,61.83
# The lines below this comment are in groups of 2.
# The formats of the lines in each of these groups are as follows:
#
# Line 1:
#     Col. 1: Time results were received.
#     Col. 2: MD5 hash of participant's IP address.
#     Col. 3: Controller name.
#     Col. 4: Item number.
#     Col. 5: Element number.
#     Col. 6: Type.
#     Col. 7: Group.
#     Col. 8: html.
#     Col. 9: startValue.
#     Col. 10: endValue.
#     Col. 11: value.
# Line 2:
#     Col. 1: Time results were received.
#     Col. 2: MD5 hash of participant's IP address.
#     Col. 3: Controller name.
#     Col. 4: Item number.
#     Col. 5: Element number.
#     Col. 6: Type.
#     Col. 7: Group.
#     Col. 8: Field name.
#     Col. 9: Field value.
1568301597,937f23df9d5c1516a692c889d2208ea5,MultiSlider,68,0,EveryNot.None.NoneBias,20, Helena won<b> all </b>of the medals,0.00,100.00,6.50
1568301597,937f23df9d5c1516a692c889d2208ea5,MultiSlider,68,0,EveryNot.None.NoneBias,20,_REACTION_TIME_,17697
# The lines below this comment are in groups of 2.
# The formats of the lines in each of these groups are as follows:
#
# Line 1:
#     Col. 1: Time results were received.
#     Col. 2: MD5 hash of participant's IP address.
#     Col. 3: Controller name.
#     Col. 4: Item number.
#     Col. 5: Element number.
#     Col. 6: Type.
#     Col. 7: Group.
#     Col. 8: Question (NULL if none).
#     Col. 9: Answer.
#     Col. 10: Whether or not answer was correct (NULL if N/A).
#     Col. 11: Time taken to answer.
# Line 2:
#     Col. 1: Time results were received.
#     Col. 2: MD5 hash of participant's IP address.
#     Col. 3: Controller name.
#     Col. 4: Item number.
#     Col. 5: Element number.
#     Col. 6: Type.
#     Col. 7: Group.
#     Col. 8: Sentence (or sentence MD5).
1568301597,937f23df9d5c1516a692c889d2208ea5,Question,68,1,EveryNot.None.NoneBias,20,What does Helena's coach think about her?,That winning any medal will be an honor,1,5190
1568301597,937f23df9d5c1516a692c889d2208ea5,MultiSlider,24,0,EveryNot.All.HowManyBias,6,Eric is a professional producer working on a new album. One day%2C he called the composer  to ask about their progress in demoing the new songs. The hosts replied%2C "Every song hasn't been demoed."
# The lines below this comment are in groups of 2.
# The formats of the lines in each of these groups are as follows:
#
# Line 1:
#     Col. 1: Time results were received.
#     Col. 2: MD5 hash of participant's IP address.
#     Col. 3: Controller name.
#     Col. 4: Item number.
#     Col. 5: Element number.
#     Col. 6: Type.
#     Col. 7: Group.
#     Col. 8: Sentence (or sentence MD5).
# Line 2:
#     Col. 1: Time results were received.
#     Col. 2: MD5 hash of participant's IP address.
#     Col. 3: Controller name.
#     Col. 4: Item number.
#     Col. 5: Element number.
#     Col. 6: Type.
#     Col. 7: Group.
#     Col. 8: html1.
#     Col. 9: startValue.
#     Col. 10: endValue.
#     Col. 11: value.
1568301597,937f23df9d5c1516a692c889d2208ea5,MultiSlider,24,0,EveryNot.All.HowManyBias,6,How well do the following sentences describe what the speaker meant?
1568301597,937f23df9d5c1516a692c889d2208ea5,MultiSlider,24,0,EveryNot.All.HowManyBias,6,<b> All </b> of the new songs have been demoed,0.00,100.00,2.83
# The lines below this comment are in groups of 2.
# The formats of the lines in each of these groups are as follows:
#
# Line 1:
#     Col. 1: Time results were received.
#     Col. 2: MD5 hash of participant's IP address.
#     Col. 3: Controller name.
#     Col. 4: Item number.
#     Col. 5: Element number.
#     Col. 6: Type.
#     Col. 7: Group.
#     Col. 8: html2.
#     Col. 9: startValue.
#     Col. 10: endValue.
#     Col. 11: value.
# Line 2:
#     Col. 1: Time results were received.
#     Col. 2: MD5 hash of participant's IP address.
#     Col. 3: Controller name.
#     Col. 4: Item number.
#     Col. 5: Element number.
#     Col. 6: Type.
#     Col. 7: Group.
#     Col. 8: html.
#     Col. 9: startValue.
#     Col. 10: endValue.
#     Col. 11: value.
1568301597,937f23df9d5c1516a692c889d2208ea5,MultiSlider,24,0,EveryNot.All.HowManyBias,6,<b> None </b> of the new songs have been demoed,0.00,100.00,20.17
1568301597,937f23df9d5c1516a692c889d2208ea5,MultiSlider,24,0,EveryNot.All.HowManyBias,6,<b> Some but not all </b> of the new songs have been demoed,0.00,100.00,76.50
# The lines below this comment are in groups of 2.
# The formats of the lines in each of these groups are as follows:
#
# Line 1:
#     Col. 1: Time results were received.
#     Col. 2: MD5 hash of participant's IP address.
#     Col. 3: Controller name.
#     Col. 4: Item number.
#     Col. 5: Element number.
#     Col. 6: Type.
#     Col. 7: Group.
#     Col. 8: Field name.
#     Col. 9: Field value.
# Line 2:
#     Col. 1: Time results were received.
#     Col. 2: MD5 hash of participant's IP address.
#     Col. 3: Controller name.
#     Col. 4: Item number.
#     Col. 5: Element number.
#     Col. 6: Type.
#     Col. 7: Group.
#     Col. 8: Sentence (or sentence MD5).
1568301597,937f23df9d5c1516a692c889d2208ea5,MultiSlider,24,0,EveryNot.All.HowManyBias,6,_REACTION_TIME_,12850
1568301597,937f23df9d5c1516a692c889d2208ea5,MultiSlider,15,0,EveryNot.All.HowManyBias,3,Rachel is an industrious teaching assistant who has to grade student essays. After a week%2C her boss asks how much progress she's made so far. She told her mentor%2C "Every essay hasn't been graded."
# The lines below this comment are in groups of 2.
# The formats of the lines in each of these groups are as follows:
#
# Line 1:
#     Col. 1: Time results were received.
#     Col. 2: MD5 hash of participant's IP address.
#     Col. 3: Controller name.
#     Col. 4: Item number.
#     Col. 5: Element number.
#     Col. 6: Type.
#     Col. 7: Group.
#     Col. 8: Sentence (or sentence MD5).
# Line 2:
#     Col. 1: Time results were received.
#     Col. 2: MD5 hash of participant's IP address.
#     Col. 3: Controller name.
#     Col. 4: Item number.
#     Col. 5: Element number.
#     Col. 6: Type.
#     Col. 7: Group.
#     Col. 8: html1.
#     Col. 9: startValue.
#     Col. 10: endValue.
#     Col. 11: value.
1568301597,937f23df9d5c1516a692c889d2208ea5,MultiSlider,15,0,EveryNot.All.HowManyBias,3,How well do the following sentences describe what the speaker meant?
1568301597,937f23df9d5c1516a692c889d2208ea5,MultiSlider,15,0,EveryNot.All.HowManyBias,3, Rachel graded <b> all </b>of the student essays,0.00,100.00,2.83
# The lines below this comment are in groups of 2.
# The formats of the lines in each of these groups are as follows:
#
# Line 1:
#     Col. 1: Time results were received.
#     Col. 2: MD5 hash of participant's IP address.
#     Col. 3: Controller name.
#     Col. 4: Item number.
#     Col. 5: Element number.
#     Col. 6: Type.
#     Col. 7: Group.
#     Col. 8: html2.
#     Col. 9: startValue.
#     Col. 10: endValue.
#     Col. 11: value.
# Line 2:
#     Col. 1: Time results were received.
#     Col. 2: MD5 hash of participant's IP address.
#     Col. 3: Controller name.
#     Col. 4: Item number.
#     Col. 5: Element number.
#     Col. 6: Type.
#     Col. 7: Group.
#     Col. 8: html.
#     Col. 9: startValue.
#     Col. 10: endValue.
#     Col. 11: value.
1568301597,937f23df9d5c1516a692c889d2208ea5,MultiSlider,15,0,EveryNot.All.HowManyBias,3, Rachel didn't grade <b> any </b>of the student essays,0.00,100.00,18.50
1568301597,937f23df9d5c1516a692c889d2208ea5,MultiSlider,15,0,EveryNot.All.HowManyBias,3, Rachel graded <b> some but not all </b>of the student essays,0.00,100.00,75.83
# The lines below this comment are in groups of 2.
# The formats of the lines in each of these groups are as follows:
#
# Line 1:
#     Col. 1: Time results were received.
#     Col. 2: MD5 hash of participant's IP address.
#     Col. 3: Controller name.
#     Col. 4: Item number.
#     Col. 5: Element number.
#     Col. 6: Type.
#     Col. 7: Group.
#     Col. 8: Field name.
#     Col. 9: Field value.
# Line 2:
#     Col. 1: Time results were received.
#     Col. 2: MD5 hash of participant's IP address.
#     Col. 3: Controller name.
#     Col. 4: Item number.
#     Col. 5: Element number.
#     Col. 6: Type.
#     Col. 7: Group.
#     Col. 8: Question (NULL if none).
#     Col. 9: Answer.
#     Col. 10: Whether or not answer was correct (NULL if N/A).
#     Col. 11: Time taken to answer.
1568301597,937f23df9d5c1516a692c889d2208ea5,MultiSlider,15,0,EveryNot.All.HowManyBias,3,_REACTION_TIME_,13130
1568301597,937f23df9d5c1516a692c889d2208ea5,Question,15,1,EveryNot.All.HowManyBias,3,What is Rachel's job?,Teaching assistant,1,4157
# Columns below this comment are as follows:
# 1. Time results were received.
# 2. MD5 hash of participant's IP address.
# 3. Controller name.
# 4. Item number.
# 5. Element number.
# 6. Type.
# 7. Group.
# 8. Sentence (or sentence MD5).
1568301597,937f23df9d5c1516a692c889d2208ea5,MultiSlider,32,0,EveryNot.All.NoneBias,8,A glamorous cocktail event was being held in the Hilton hotel. When guests arrived%2C the receptionist wanted to see if anyone observed the dress code in the invitation. The receptionist said%2C "Every guest wasn't dressed properly."
1568301597,937f23df9d5c1516a692c889d2208ea5,MultiSlider,32,0,EveryNot.All.NoneBias,8,How well do the following sentences describe what the speaker meant?
# The lines below this comment are in groups of 2.
# The formats of the lines in each of these groups are as follows:
#
# Line 1:
#     Col. 1: Time results were received.
#     Col. 2: MD5 hash of participant's IP address.
#     Col. 3: Controller name.
#     Col. 4: Item number.
#     Col. 5: Element number.
#     Col. 6: Type.
#     Col. 7: Group.
#     Col. 8: html1.
#     Col. 9: startValue.
#     Col. 10: endValue.
#     Col. 11: value.
# Line 2:
#     Col. 1: Time results were received.
#     Col. 2: MD5 hash of participant's IP address.
#     Col. 3: Controller name.
#     Col. 4: Item number.
#     Col. 5: Element number.
#     Col. 6: Type.
#     Col. 7: Group.
#     Col. 8: html2.
#     Col. 9: startValue.
#     Col. 10: endValue.
#     Col. 11: value.
1568301597,937f23df9d5c1516a692c889d2208ea5,MultiSlider,32,0,EveryNot.All.NoneBias,8,<b> None </b> of the guests were dressed properly,0.00,100.00,9.83
1568301597,937f23df9d5c1516a692c889d2208ea5,MultiSlider,32,0,EveryNot.All.NoneBias,8,<b> Some but not all </b> of the guests were dressed properly,0.00,100.00,80.17
# The lines below this comment are in groups of 2.
# The formats of the lines in each of these groups are as follows:
#
# Line 1:
#     Col. 1: Time results were received.
#     Col. 2: MD5 hash of participant's IP address.
#     Col. 3: Controller name.
#     Col. 4: Item number.
#     Col. 5: Element number.
#     Col. 6: Type.
#     Col. 7: Group.
#     Col. 8: html.
#     Col. 9: startValue.
#     Col. 10: endValue.
#     Col. 11: value.
# Line 2:
#     Col. 1: Time results were received.
#     Col. 2: MD5 hash of participant's IP address.
#     Col. 3: Controller name.
#     Col. 4: Item number.
#     Col. 5: Element number.
#     Col. 6: Type.
#     Col. 7: Group.
#     Col. 8: Field name.
#     Col. 9: Field value.
1568301597,937f23df9d5c1516a692c889d2208ea5,MultiSlider,32,0,EveryNot.All.NoneBias,8,<b> All </b> of the guests were dressed properly,0.00,100.00,3.83
1568301597,937f23df9d5c1516a692c889d2208ea5,MultiSlider,32,0,EveryNot.All.NoneBias,8,_REACTION_TIME_,16074
# The lines below this comment are in groups of 2.
# The formats of the lines in each of these groups are as follows:
#
# Line 1:
#     Col. 1: Time results were received.
#     Col. 2: MD5 hash of participant's IP address.
#     Col. 3: Controller name.
#     Col. 4: Item number.
#     Col. 5: Element number.
#     Col. 6: Type.
#     Col. 7: Group.
#     Col. 8: Question (NULL if none).
#     Col. 9: Answer.
#     Col. 10: Whether or not answer was correct (NULL if N/A).
#     Col. 11: Time taken to answer.
# Line 2:
#     Col. 1: Time results were received.
#     Col. 2: MD5 hash of participant's IP address.
#     Col. 3: Controller name.
#     Col. 4: Item number.
#     Col. 5: Element number.
#     Col. 6: Type.
#     Col. 7: Group.
#     Col. 8: Sentence (or sentence MD5).
1568301597,937f23df9d5c1516a692c889d2208ea5,Question,32,1,EveryNot.All.NoneBias,8,What was the receptionist trying to do?,Make sure that everyone was properly dressed,0,9013
1568301597,937f23df9d5c1516a692c889d2208ea5,MultiSlider,64,0,EveryNot.None.AllBias,19,Bill is an average runner who tried to break five Guinness records of running. At the day of the challenge%2C he swore that he was going to get all the records under his belt. The TV reporter announced%2C "Every record wasn't broken."
# The lines below this comment are in groups of 2.
# The formats of the lines in each of these groups are as follows:
#
# Line 1:
#     Col. 1: Time results were received.
#     Col. 2: MD5 hash of participant's IP address.
#     Col. 3: Controller name.
#     Col. 4: Item number.
#     Col. 5: Element number.
#     Col. 6: Type.
#     Col. 7: Group.
#     Col. 8: Sentence (or sentence MD5).
# Line 2:
#     Col. 1: Time results were received.
#     Col. 2: MD5 hash of participant's IP address.
#     Col. 3: Controller name.
#     Col. 4: Item number.
#     Col. 5: Element number.
#     Col. 6: Type.
#     Col. 7: Group.
#     Col. 8: html1.
#     Col. 9: startValue.
#     Col. 10: endValue.
#     Col. 11: value.
1568301597,937f23df9d5c1516a692c889d2208ea5,MultiSlider,64,0,EveryNot.None.AllBias,19,How well do the following sentences describe what the speaker meant?
1568301597,937f23df9d5c1516a692c889d2208ea5,MultiSlider,64,0,EveryNot.None.AllBias,19,Bill broke<b> some but not all </b>of the records in the end,0.00,100.00,57.50
# The lines below this comment are in groups of 2.
# The formats of the lines in each of these groups are as follows:
#
# Line 1:
#     Col. 1: Time results were received.
#     Col. 2: MD5 hash of participant's IP address.
#     Col. 3: Controller name.
#     Col. 4: Item number.
#     Col. 5: Element number.
#     Col. 6: Type.
#     Col. 7: Group.
#     Col. 8: html2.
#     Col. 9: startValue.
#     Col. 10: endValue.
#     Col. 11: value.
# Line 2:
#     Col. 1: Time results were received.
#     Col. 2: MD5 hash of participant's IP address.
#     Col. 3: Controller name.
#     Col. 4: Item number.
#     Col. 5: Element number.
#     Col. 6: Type.
#     Col. 7: Group.
#     Col. 8: html.
#     Col. 9: startValue.
#     Col. 10: endValue.
#     Col. 11: value.
1568301597,937f23df9d5c1516a692c889d2208ea5,MultiSlider,64,0,EveryNot.None.AllBias,19,Bill broke<b> all </b>of the records in the end,0.00,100.00,1.83
1568301597,937f23df9d5c1516a692c889d2208ea5,MultiSlider,64,0,EveryNot.None.AllBias,19,Bill didn't break<b> any </b>of the records in the end,0.00,100.00,33.50
# The lines below this comment are in groups of 2.
# The formats of the lines in each of these groups are as follows:
#
# Line 1:
#     Col. 1: Time results were received.
#     Col. 2: MD5 hash of participant's IP address.
#     Col. 3: Controller name.
#     Col. 4: Item number.
#     Col. 5: Element number.
#     Col. 6: Type.
#     Col. 7: Group.
#     Col. 8: Field name.
#     Col. 9: Field value.
# Line 2:
#     Col. 1: Time results were received.
#     Col. 2: MD5 hash of participant's IP address.
#     Col. 3: Controller name.
#     Col. 4: Item number.
#     Col. 5: Element number.
#     Col. 6: Type.
#     Col. 7: Group.
#     Col. 8: Question (NULL if none).
#     Col. 9: Answer.
#     Col. 10: Whether or not answer was correct (NULL if N/A).
#     Col. 11: Time taken to answer.
1568301597,937f23df9d5c1516a692c889d2208ea5,MultiSlider,64,0,EveryNot.None.AllBias,19,_REACTION_TIME_,27762
1568301597,937f23df9d5c1516a692c889d2208ea5,Question,64,1,EveryNot.None.AllBias,19,What kind of sports does Bill do?,Running,1,2207
# Columns below this comment are as follows:
# 1. Time results were received.
# 2. MD5 hash of participant's IP address.
# 3. Controller name.
# 4. Item number.
# 5. Element number.
# 6. Type.
# 7. Group.
# 8. Sentence (or sentence MD5).
1568301597,937f23df9d5c1516a692c889d2208ea5,MultiSlider,46,0,EveryNot.Some.AllBias,13,Lily inherited her mom's huge book collection. When her boyfriend visited%2C he wondered if Lily had already cataloged the entire collection. Lily added%2C "Every book hasn't been cataloged."
1568301597,937f23df9d5c1516a692c889d2208ea5,MultiSlider,46,0,EveryNot.Some.AllBias,13,How well do the following sentences describe what the speaker meant?
# The lines below this comment are in groups of 2.
# The formats of the lines in each of these groups are as follows:
#
# Line 1:
#     Col. 1: Time results were received.
#     Col. 2: MD5 hash of participant's IP address.
#     Col. 3: Controller name.
#     Col. 4: Item number.
#     Col. 5: Element number.
#     Col. 6: Type.
#     Col. 7: Group.
#     Col. 8: html1.
#     Col. 9: startValue.
#     Col. 10: endValue.
#     Col. 11: value.
# Line 2:
#     Col. 1: Time results were received.
#     Col. 2: MD5 hash of participant's IP address.
#     Col. 3: Controller name.
#     Col. 4: Item number.
#     Col. 5: Element number.
#     Col. 6: Type.
#     Col. 7: Group.
#     Col. 8: html2.
#     Col. 9: startValue.
#     Col. 10: endValue.
#     Col. 11: value.
1568301597,937f23df9d5c1516a692c889d2208ea5,MultiSlider,46,0,EveryNot.Some.AllBias,13,<b> Some but not all </b> of the books have been cataloged,0.00,100.00,62.50
1568301597,937f23df9d5c1516a692c889d2208ea5,MultiSlider,46,0,EveryNot.Some.AllBias,13,<b> All </b> of the books have been cataloged,0.00,100.00,5.50
# The lines below this comment are in groups of 2.
# The formats of the lines in each of these groups are as follows:
#
# Line 1:
#     Col. 1: Time results were received.
#     Col. 2: MD5 hash of participant's IP address.
#     Col. 3: Controller name.
#     Col. 4: Item number.
#     Col. 5: Element number.
#     Col. 6: Type.
#     Col. 7: Group.
#     Col. 8: html.
#     Col. 9: startValue.
#     Col. 10: endValue.
#     Col. 11: value.
# Line 2:
#     Col. 1: Time results were received.
#     Col. 2: MD5 hash of participant's IP address.
#     Col. 3: Controller name.
#     Col. 4: Item number.
#     Col. 5: Element number.
#     Col. 6: Type.
#     Col. 7: Group.
#     Col. 8: Field name.
#     Col. 9: Field value.
1568301597,937f23df9d5c1516a692c889d2208ea5,MultiSlider,46,0,EveryNot.Some.AllBias,13,<b> None </b> of the books have been cataloged,0.00,100.00,30.83
1568301597,937f23df9d5c1516a692c889d2208ea5,MultiSlider,46,0,EveryNot.Some.AllBias,13,_REACTION_TIME_,12586
# The lines below this comment are in groups of 2.
# The formats of the lines in each of these groups are as follows:
#
# Line 1:
#     Col. 1: Time results were received.
#     Col. 2: MD5 hash of participant's IP address.
#     Col. 3: Controller name.
#     Col. 4: Item number.
#     Col. 5: Element number.
#     Col. 6: Type.
#     Col. 7: Group.
#     Col. 8: Question (NULL if none).
#     Col. 9: Answer.
#     Col. 10: Whether or not answer was correct (NULL if N/A).
#     Col. 11: Time taken to answer.
# Line 2:
#     Col. 1: Time results were received.
#     Col. 2: MD5 hash of participant's IP address.
#     Col. 3: Controller name.
#     Col. 4: Item number.
#     Col. 5: Element number.
#     Col. 6: Type.
#     Col. 7: Group.
#     Col. 8: Sentence (or sentence MD5).
1568301597,937f23df9d5c1516a692c889d2208ea5,Question,46,1,EveryNot.Some.AllBias,13,Who did Lily get the book collection from?,Her mom,1,2253
1568301597,937f23df9d5c1516a692c889d2208ea5,MultiSlider,77,0,EveryNot.None.NoneBias,23,The hospital has the best doctors in the country. One day%2C five patients had to be operated on for fractures in arms and legs. Afterwards%2C a news reporter asked whether any of the patients had been successfully treated. The hospital manager said%2C "Every operation wasn't a failure."
# The lines below this comment are in groups of 2.
# The formats of the lines in each of these groups are as follows:
#
# Line 1:
#     Col. 1: Time results were received.
#     Col. 2: MD5 hash of participant's IP address.
#     Col. 3: Controller name.
#     Col. 4: Item number.
#     Col. 5: Element number.
#     Col. 6: Type.
#     Col. 7: Group.
#     Col. 8: Sentence (or sentence MD5).
# Line 2:
#     Col. 1: Time results were received.
#     Col. 2: MD5 hash of participant's IP address.
#     Col. 3: Controller name.
#     Col. 4: Item number.
#     Col. 5: Element number.
#     Col. 6: Type.
#     Col. 7: Group.
#     Col. 8: html1.
#     Col. 9: startValue.
#     Col. 10: endValue.
#     Col. 11: value.
1568301597,937f23df9d5c1516a692c889d2208ea5,MultiSlider,77,0,EveryNot.None.NoneBias,23,How well do the following sentences describe what the speaker meant?
1568301597,937f23df9d5c1516a692c889d2208ea5,MultiSlider,77,0,EveryNot.None.NoneBias,23,<b> None </b> of the operations were successful,0.00,100.00,20.50
# The lines below this comment are in groups of 2.
# The formats of the lines in each of these groups are as follows:
#
# Line 1:
#     Col. 1: Time results were received.
#     Col. 2: MD5 hash of participant's IP address.
#     Col. 3: Controller name.
#     Col. 4: Item number.
#     Col. 5: Element number.
#     Col. 6: Type.
#     Col. 7: Group.
#     Col. 8: html2.
#     Col. 9: startValue.
#     Col. 10: endValue.
#     Col. 11: value.
# Line 2:
#     Col. 1: Time results were received.
#     Col. 2: MD5 hash of participant's IP address.
#     Col. 3: Controller name.
#     Col. 4: Item number.
#     Col. 5: Element number.
#     Col. 6: Type.
#     Col. 7: Group.
#     Col. 8: html.
#     Col. 9: startValue.
#     Col. 10: endValue.
#     Col. 11: value.
1568301597,937f23df9d5c1516a692c889d2208ea5,MultiSlider,77,0,EveryNot.None.NoneBias,23,<b> Some but not all </b> of the operations were successful,0.00,100.00,70.17
1568301597,937f23df9d5c1516a692c889d2208ea5,MultiSlider,77,0,EveryNot.None.NoneBias,23,<b> All </b> of the operations were successful,0.00,100.00,8.83
# The lines below this comment are in groups of 2.
# The formats of the lines in each of these groups are as follows:
#
# Line 1:
#     Col. 1: Time results were received.
#     Col. 2: MD5 hash of participant's IP address.
#     Col. 3: Controller name.
#     Col. 4: Item number.
#     Col. 5: Element number.
#     Col. 6: Type.
#     Col. 7: Group.
#     Col. 8: Field name.
#     Col. 9: Field value.
# Line 2:
#     Col. 1: Time results were received.
#     Col. 2: MD5 hash of participant's IP address.
#     Col. 3: Controller name.
#     Col. 4: Item number.
#     Col. 5: Element number.
#     Col. 6: Type.
#     Col. 7: Group.
#     Col. 8: Question (NULL if none).
#     Col. 9: Answer.
#     Col. 10: Whether or not answer was correct (NULL if N/A).
#     Col. 11: Time taken to answer.
1568301597,937f23df9d5c1516a692c889d2208ea5,MultiSlider,77,0,EveryNot.None.NoneBias,23,_REACTION_TIME_,25889
1568301597,937f23df9d5c1516a692c889d2208ea5,Question,77,1,EveryNot.None.NoneBias,23,Where did the patients need to be operated on?,Arms,1,2454
# Columns below this comment are as follows:
# 1. Time results were received.
# 2. MD5 hash of participant's IP address.
# 3. Controller name.
# 4. Item number.
# 5. Element number.
# 6. Type.
# 7. Group.
# 8. Sentence (or sentence MD5).
1568301597,937f23df9d5c1516a692c889d2208ea5,MultiSlider,23,0,EveryNot.All.NoneBias,5,Paula is a dedicated store assistant. A week ago%2C five boxes of new products had arrived at the store. Her manager asked if she had begun opening the boxes. Paula answered%2C "Every box hasn't been opened."
1568301597,937f23df9d5c1516a692c889d2208ea5,MultiSlider,23,0,EveryNot.All.NoneBias,5,How well do the following sentences describe what the speaker meant?
# The lines below this comment are in groups of 2.
# The formats of the lines in each of these groups are as follows:
#
# Line 1:
#     Col. 1: Time results were received.
#     Col. 2: MD5 hash of participant's IP address.
#     Col. 3: Controller name.
#     Col. 4: Item number.
#     Col. 5: Element number.
#     Col. 6: Type.
#     Col. 7: Group.
#     Col. 8: html1.
#     Col. 9: startValue.
#     Col. 10: endValue.
#     Col. 11: value.
# Line 2:
#     Col. 1: Time results were received.
#     Col. 2: MD5 hash of participant's IP address.
#     Col. 3: Controller name.
#     Col. 4: Item number.
#     Col. 5: Element number.
#     Col. 6: Type.
#     Col. 7: Group.
#     Col. 8: html2.
#     Col. 9: startValue.
#     Col. 10: endValue.
#     Col. 11: value.
1568301597,937f23df9d5c1516a692c889d2208ea5,MultiSlider,23,0,EveryNot.All.NoneBias,5, Paula hasn't opened <b> any </b>of the boxes,0.00,100.00,19.83
1568301597,937f23df9d5c1516a692c889d2208ea5,MultiSlider,23,0,EveryNot.All.NoneBias,5, Paula has opened <b> some but not all </b>of the boxes,0.00,100.00,72.17
# The lines below this comment are in groups of 2.
# The formats of the lines in each of these groups are as follows:
#
# Line 1:
#     Col. 1: Time results were received.
#     Col. 2: MD5 hash of participant's IP address.
#     Col. 3: Controller name.
#     Col. 4: Item number.
#     Col. 5: Element number.
#     Col. 6: Type.
#     Col. 7: Group.
#     Col. 8: html.
#     Col. 9: startValue.
#     Col. 10: endValue.
#     Col. 11: value.
# Line 2:
#     Col. 1: Time results were received.
#     Col. 2: MD5 hash of participant's IP address.
#     Col. 3: Controller name.
#     Col. 4: Item number.
#     Col. 5: Element number.
#     Col. 6: Type.
#     Col. 7: Group.
#     Col. 8: Field name.
#     Col. 9: Field value.
1568301597,937f23df9d5c1516a692c889d2208ea5,MultiSlider,23,0,EveryNot.All.NoneBias,5, Paula has opened <b> all </b>of the boxes,0.00,100.00,3.50
1568301597,937f23df9d5c1516a692c889d2208ea5,MultiSlider,23,0,EveryNot.All.NoneBias,5,_REACTION_TIME_,16403
# The lines below this comment are in groups of 2.
# The formats of the lines in each of these groups are as follows:
#
# Line 1:
#     Col. 1: Time results were received.
#     Col. 2: MD5 hash of participant's IP address.
#     Col. 3: Controller name.
#     Col. 4: Item number.
#     Col. 5: Element number.
#     Col. 6: Type.
#     Col. 7: Group.
#     Col. 8: Question (NULL if none).
#     Col. 9: Answer.
#     Col. 10: Whether or not answer was correct (NULL if N/A).
#     Col. 11: Time taken to answer.
# Line 2:
#     Col. 1: Time results were received.
#     Col. 2: MD5 hash of participant's IP address.
#     Col. 3: Controller name.
#     Col. 4: Item number.
#     Col. 5: Element number.
#     Col. 6: Type.
#     Col. 7: Group.
#     Col. 8: Sentence (or sentence MD5).
1568301597,937f23df9d5c1516a692c889d2208ea5,Question,23,1,EveryNot.All.NoneBias,5,When did the new products arrive?,A week ago,1,4029
1568301597,937f23df9d5c1516a692c889d2208ea5,MultiSlider,73,0,EveryNot.None.AllBias,22,The unsuccessful broker has made some risky investments in the stock market. He nervously stared at the monitor%2C because his house may be foreclosed unless all of his investments work out. He groaned%2C "Every investment didn't pay off."
# The lines below this comment are in groups of 2.
# The formats of the lines in each of these groups are as follows:
#
# Line 1:
#     Col. 1: Time results were received.
#     Col. 2: MD5 hash of participant's IP address.
#     Col. 3: Controller name.
#     Col. 4: Item number.
#     Col. 5: Element number.
#     Col. 6: Type.
#     Col. 7: Group.
#     Col. 8: Sentence (or sentence MD5).
# Line 2:
#     Col. 1: Time results were received.
#     Col. 2: MD5 hash of participant's IP address.
#     Col. 3: Controller name.
#     Col. 4: Item number.
#     Col. 5: Element number.
#     Col. 6: Type.
#     Col. 7: Group.
#     Col. 8: html1.
#     Col. 9: startValue.
#     Col. 10: endValue.
#     Col. 11: value.
1568301597,937f23df9d5c1516a692c889d2208ea5,MultiSlider,73,0,EveryNot.None.AllBias,22,How well do the following sentences describe what the speaker meant?
1568301597,937f23df9d5c1516a692c889d2208ea5,MultiSlider,73,0,EveryNot.None.AllBias,22,<b> Some but not all </b> of the investments paid off,0.00,100.00,62.17
# The lines below this comment are in groups of 2.
# The formats of the lines in each of these groups are as follows:
#
# Line 1:
#     Col. 1: Time results were received.
#     Col. 2: MD5 hash of participant's IP address.
#     Col. 3: Controller name.
#     Col. 4: Item number.
#     Col. 5: Element number.
#     Col. 6: Type.
#     Col. 7: Group.
#     Col. 8: html2.
#     Col. 9: startValue.
#     Col. 10: endValue.
#     Col. 11: value.
# Line 2:
#     Col. 1: Time results were received.
#     Col. 2: MD5 hash of participant's IP address.
#     Col. 3: Controller name.
#     Col. 4: Item number.
#     Col. 5: Element number.
#     Col. 6: Type.
#     Col. 7: Group.
#     Col. 8: html.
#     Col. 9: startValue.
#     Col. 10: endValue.
#     Col. 11: value.
1568301597,937f23df9d5c1516a692c889d2208ea5,MultiSlider,73,0,EveryNot.None.AllBias,22,<b> All </b> of the investments paid off,0.00,100.00,3.50
1568301597,937f23df9d5c1516a692c889d2208ea5,MultiSlider,73,0,EveryNot.None.AllBias,22,<b> None </b> of the investments paid off,0.00,100.00,24.50
# The lines below this comment are in groups of 2.
# The formats of the lines in each of these groups are as follows:
#
# Line 1:
#     Col. 1: Time results were received.
#     Col. 2: MD5 hash of participant's IP address.
#     Col. 3: Controller name.
#     Col. 4: Item number.
#     Col. 5: Element number.
#     Col. 6: Type.
#     Col. 7: Group.
#     Col. 8: Field name.
#     Col. 9: Field value.
# Line 2:
#     Col. 1: Time results were received.
#     Col. 2: MD5 hash of participant's IP address.
#     Col. 3: Controller name.
#     Col. 4: Item number.
#     Col. 5: Element number.
#     Col. 6: Type.
#     Col. 7: Group.
#     Col. 8: Sentence (or sentence MD5).
1568301597,937f23df9d5c1516a692c889d2208ea5,MultiSlider,73,0,EveryNot.None.AllBias,22,_REACTION_TIME_,20163
1568301597,937f23df9d5c1516a692c889d2208ea5,MultiSlider,10,0,EveryNot.All.AllBias,1,The whole kindergarten was going on a field trip. The teacher jumped on the bus to see if all the children had been seated. The teacher said%2C "Every kindergartner didn't get on the bus."
# The lines below this comment are in groups of 2.
# The formats of the lines in each of these groups are as follows:
#
# Line 1:
#     Col. 1: Time results were received.
#     Col. 2: MD5 hash of participant's IP address.
#     Col. 3: Controller name.
#     Col. 4: Item number.
#     Col. 5: Element number.
#     Col. 6: Type.
#     Col. 7: Group.
#     Col. 8: Sentence (or sentence MD5).
# Line 2:
#     Col. 1: Time results were received.
#     Col. 2: MD5 hash of participant's IP address.
#     Col. 3: Controller name.
#     Col. 4: Item number.
#     Col. 5: Element number.
#     Col. 6: Type.
#     Col. 7: Group.
#     Col. 8: html1.
#     Col. 9: startValue.
#     Col. 10: endValue.
#     Col. 11: value.
1568301597,937f23df9d5c1516a692c889d2208ea5,MultiSlider,10,0,EveryNot.All.AllBias,1,How well do the following sentences describe what the speaker meant?
1568301597,937f23df9d5c1516a692c889d2208ea5,MultiSlider,10,0,EveryNot.All.AllBias,1,<b> Some but not all </b> of the kindergartners got on the bus,0.00,100.00,79.83
# The lines below this comment are in groups of 2.
# The formats of the lines in each of these groups are as follows:
#
# Line 1:
#     Col. 1: Time results were received.
#     Col. 2: MD5 hash of participant's IP address.
#     Col. 3: Controller name.
#     Col. 4: Item number.
#     Col. 5: Element number.
#     Col. 6: Type.
#     Col. 7: Group.
#     Col. 8: html2.
#     Col. 9: startValue.
#     Col. 10: endValue.
#     Col. 11: value.
# Line 2:
#     Col. 1: Time results were received.
#     Col. 2: MD5 hash of participant's IP address.
#     Col. 3: Controller name.
#     Col. 4: Item number.
#     Col. 5: Element number.
#     Col. 6: Type.
#     Col. 7: Group.
#     Col. 8: html.
#     Col. 9: startValue.
#     Col. 10: endValue.
#     Col. 11: value.
1568301597,937f23df9d5c1516a692c889d2208ea5,MultiSlider,10,0,EveryNot.All.AllBias,1,<b> All </b> of the kindergartners got on the bus,0.00,100.00,1.17
1568301597,937f23df9d5c1516a692c889d2208ea5,MultiSlider,10,0,EveryNot.All.AllBias,1,<b> None </b> of the kindergartners got on the bus,0.00,100.00,3.50
# The lines below this comment are in groups of 2.
# The formats of the lines in each of these groups are as follows:
#
# Line 1:
#     Col. 1: Time results were received.
#     Col. 2: MD5 hash of participant's IP address.
#     Col. 3: Controller name.
#     Col. 4: Item number.
#     Col. 5: Element number.
#     Col. 6: Type.
#     Col. 7: Group.
#     Col. 8: Field name.
#     Col. 9: Field value.
# Line 2:
#     Col. 1: Time results were received.
#     Col. 2: MD5 hash of participant's IP address.
#     Col. 3: Controller name.
#     Col. 4: Item number.
#     Col. 5: Element number.
#     Col. 6: Type.
#     Col. 7: Group.
#     Col. 8: Question (NULL if none).
#     Col. 9: Answer.
#     Col. 10: Whether or not answer was correct (NULL if N/A).
#     Col. 11: Time taken to answer.
1568301597,937f23df9d5c1516a692c889d2208ea5,MultiSlider,10,0,EveryNot.All.AllBias,1,_REACTION_TIME_,10986
1568301597,937f23df9d5c1516a692c889d2208ea5,Question,10,1,EveryNot.All.AllBias,1,Where did the kindergartners go?,On a fieldtrip,1,3405
# Columns below this comment are as follows:
# 1. Time results were received.
# 2. MD5 hash of participant's IP address.
# 3. Controller name.
# 4. Item number.
# 5. Element number.
# 6. Type.
# 7. Group.
# 8. Sentence (or sentence MD5).
1568301597,937f23df9d5c1516a692c889d2208ea5,MultiSlider,14,0,EveryNot.All.NoneBias,2,Erin is a vet. During her last trip%2C she encountered six deer in critical condition%2C and she did the best she could to save even just one life. Upon return%2C Erin said%2C "Every deer didn't survive."
1568301597,937f23df9d5c1516a692c889d2208ea5,MultiSlider,14,0,EveryNot.All.NoneBias,2,How well do the following sentences describe what the speaker meant?
# The lines below this comment are in groups of 2.
# The formats of the lines in each of these groups are as follows:
#
# Line 1:
#     Col. 1: Time results were received.
#     Col. 2: MD5 hash of participant's IP address.
#     Col. 3: Controller name.
#     Col. 4: Item number.
#     Col. 5: Element number.
#     Col. 6: Type.
#     Col. 7: Group.
#     Col. 8: html1.
#     Col. 9: startValue.
#     Col. 10: endValue.
#     Col. 11: value.
# Line 2:
#     Col. 1: Time results were received.
#     Col. 2: MD5 hash of participant's IP address.
#     Col. 3: Controller name.
#     Col. 4: Item number.
#     Col. 5: Element number.
#     Col. 6: Type.
#     Col. 7: Group.
#     Col. 8: html2.
#     Col. 9: startValue.
#     Col. 10: endValue.
#     Col. 11: value.
1568301597,937f23df9d5c1516a692c889d2208ea5,MultiSlider,14,0,EveryNot.All.NoneBias,2,<b> None </b> of the six deer survived,0.00,100.00,3.83
1568301597,937f23df9d5c1516a692c889d2208ea5,MultiSlider,14,0,EveryNot.All.NoneBias,2,<b> Some but not all </b> of the six deer survived,0.00,100.00,74.17
# The lines below this comment are in groups of 2.
# The formats of the lines in each of these groups are as follows:
#
# Line 1:
#     Col. 1: Time results were received.
#     Col. 2: MD5 hash of participant's IP address.
#     Col. 3: Controller name.
#     Col. 4: Item number.
#     Col. 5: Element number.
#     Col. 6: Type.
#     Col. 7: Group.
#     Col. 8: html.
#     Col. 9: startValue.
#     Col. 10: endValue.
#     Col. 11: value.
# Line 2:
#     Col. 1: Time results were received.
#     Col. 2: MD5 hash of participant's IP address.
#     Col. 3: Controller name.
#     Col. 4: Item number.
#     Col. 5: Element number.
#     Col. 6: Type.
#     Col. 7: Group.
#     Col. 8: Field name.
#     Col. 9: Field value.
1568301597,937f23df9d5c1516a692c889d2208ea5,MultiSlider,14,0,EveryNot.All.NoneBias,2,<b> All </b> of the six deer survived,0.00,100.00,6.50
1568301597,937f23df9d5c1516a692c889d2208ea5,MultiSlider,14,0,EveryNot.All.NoneBias,2,_REACTION_TIME_,15459
# Columns below this comment are as follows:
# 1. Time results were received.
# 2. MD5 hash of participant's IP address.
# 3. Controller name.
# 4. Item number.
# 5. Element number.
# 6. Type.
# 7. Group.
# 8. Sentence (or sentence MD5).
1568301597,937f23df9d5c1516a692c889d2208ea5,MultiSlider,42,0,EveryNot.Some.HowManyBias,12,Sue and Marc went to a two-day science exhibition. On the first day%2C the organizers approached them and asked about the number of booths they had checked off the map so far. Sue said%2C "Every booth hasn't been visited."
1568301597,937f23df9d5c1516a692c889d2208ea5,MultiSlider,42,0,EveryNot.Some.HowManyBias,12,How well do the following sentences describe what the speaker meant?
# The lines below this comment are in groups of 2.
# The formats of the lines in each of these groups are as follows:
#
# Line 1:
#     Col. 1: Time results were received.
#     Col. 2: MD5 hash of participant's IP address.
#     Col. 3: Controller name.
#     Col. 4: Item number.
#     Col. 5: Element number.
#     Col. 6: Type.
#     Col. 7: Group.
#     Col. 8: html1.
#     Col. 9: startValue.
#     Col. 10: endValue.
#     Col. 11: value.
# Line 2:
#     Col. 1: Time results were received.
#     Col. 2: MD5 hash of participant's IP address.
#     Col. 3: Controller name.
#     Col. 4: Item number.
#     Col. 5: Element number.
#     Col. 6: Type.
#     Col. 7: Group.
#     Col. 8: html2.
#     Col. 9: startValue.
#     Col. 10: endValue.
#     Col. 11: value.
1568301597,937f23df9d5c1516a692c889d2208ea5,MultiSlider,42,0,EveryNot.Some.HowManyBias,12,Sue and Marc have visited<b> all </b>of the booths so far,0.00,100.00,1.83
1568301597,937f23df9d5c1516a692c889d2208ea5,MultiSlider,42,0,EveryNot.Some.HowManyBias,12,Sue and Marc haven't visited<b> any </b>of the booths so far,0.00,100.00,10.17
# Columns below this comment are as follows:
# 1. Time results were received.
# 2. MD5 hash of participant's IP address.
# 3. Controller name.
# 4. Item number.
# 5. Element number.
# 6. Type.
# 7. Group.
# 8. html.
# 9. startValue.
# 10. endValue.
# 11. value.
1568301597,937f23df9d5c1516a692c889d2208ea5,MultiSlider,42,0,EveryNot.Some.HowManyBias,12,Sue and Marc have visited<b> some but not all </b>of the booths so far,0.00,100.00,72.83
1568301597,937f23df9d5c1516a692c889d2208ea5,MultiSlider,42,0,EveryNot.Some.HowManyBias,12,Sue and Marc have visited<b> some but not all </b>of the booths so far,0.00,100.00,87.50
# The lines below this comment are in groups of 2.
# The formats of the lines in each of these groups are as follows:
#
# Line 1:
#     Col. 1: Time results were received.
#     Col. 2: MD5 hash of participant's IP address.
#     Col. 3: Controller name.
#     Col. 4: Item number.
#     Col. 5: Element number.
#     Col. 6: Type.
#     Col. 7: Group.
#     Col. 8: Field name.
#     Col. 9: Field value.
# Line 2:
#     Col. 1: Time results were received.
#     Col. 2: MD5 hash of participant's IP address.
#     Col. 3: Controller name.
#     Col. 4: Item number.
#     Col. 5: Element number.
#     Col. 6: Type.
#     Col. 7: Group.
#     Col. 8: Question (NULL if none).
#     Col. 9: Answer.
#     Col. 10: Whether or not answer was correct (NULL if N/A).
#     Col. 11: Time taken to answer.
1568301597,937f23df9d5c1516a692c889d2208ea5,MultiSlider,42,0,EveryNot.Some.HowManyBias,12,_REACTION_TIME_,16201
1568301597,937f23df9d5c1516a692c889d2208ea5,Question,42,1,EveryNot.Some.HowManyBias,12,What did the organizers ask?,The number of booths Sue and Marc visited,1,5270
# Columns below this comment are as follows:
# 1. Time results were received.
# 2. MD5 hash of participant's IP address.
# 3. Controller name.
# 4. Item number.
# 5. Element number.
# 6. Type.
# 7. Group.
# 8. Sentence (or sentence MD5).
1568301597,937f23df9d5c1516a692c889d2208ea5,MultiSlider,19,0,EveryNot.All.AllBias,4,The couple has been planning their wedding for next month. The bride asks her future husband if he has finished writing the invitations. The groom says%2C "Every wedding invitation hasn't been written."
1568301597,937f23df9d5c1516a692c889d2208ea5,MultiSlider,19,0,EveryNot.All.AllBias,4,How well do the following sentences describe what the speaker meant?
# The lines below this comment are in groups of 2.
# The formats of the lines in each of these groups are as follows:
#
# Line 1:
#     Col. 1: Time results were received.
#     Col. 2: MD5 hash of participant's IP address.
#     Col. 3: Controller name.
#     Col. 4: Item number.
#     Col. 5: Element number.
#     Col. 6: Type.
#     Col. 7: Group.
#     Col. 8: html1.
#     Col. 9: startValue.
#     Col. 10: endValue.
#     Col. 11: value.
# Line 2:
#     Col. 1: Time results were received.
#     Col. 2: MD5 hash of participant's IP address.
#     Col. 3: Controller name.
#     Col. 4: Item number.
#     Col. 5: Element number.
#     Col. 6: Type.
#     Col. 7: Group.
#     Col. 8: html2.
#     Col. 9: startValue.
#     Col. 10: endValue.
#     Col. 11: value.
1568301597,937f23df9d5c1516a692c889d2208ea5,MultiSlider,19,0,EveryNot.All.AllBias,4, The couple has written <b> some but not all </b>of the wedding invitations,0.00,100.00,78.83
1568301597,937f23df9d5c1516a692c889d2208ea5,MultiSlider,19,0,EveryNot.All.AllBias,4, The couple has written <b> all </b>of the wedding invitations,0.00,100.00,0.50
# The lines below this comment are in groups of 2.
# The formats of the lines in each of these groups are as follows:
#
# Line 1:
#     Col. 1: Time results were received.
#     Col. 2: MD5 hash of participant's IP address.
#     Col. 3: Controller name.
#     Col. 4: Item number.
#     Col. 5: Element number.
#     Col. 6: Type.
#     Col. 7: Group.
#     Col. 8: html.
#     Col. 9: startValue.
#     Col. 10: endValue.
#     Col. 11: value.
# Line 2:
#     Col. 1: Time results were received.
#     Col. 2: MD5 hash of participant's IP address.
#     Col. 3: Controller name.
#     Col. 4: Item number.
#     Col. 5: Element number.
#     Col. 6: Type.
#     Col. 7: Group.
#     Col. 8: Field name.
#     Col. 9: Field value.
1568301597,937f23df9d5c1516a692c889d2208ea5,MultiSlider,19,0,EveryNot.All.AllBias,4, The couple hasn't written <b> any </b>of the wedding invitations,0.00,100.00,17.17
1568301597,937f23df9d5c1516a692c889d2208ea5,MultiSlider,19,0,EveryNot.All.AllBias,4,_REACTION_TIME_,12643
# The lines below this comment are in groups of 2.
# The formats of the lines in each of these groups are as follows:
#
# Line 1:
#     Col. 1: Time results were received.
#     Col. 2: MD5 hash of participant's IP address.
#     Col. 3: Controller name.
#     Col. 4: Item number.
#     Col. 5: Element number.
#     Col. 6: Type.
#     Col. 7: Group.
#     Col. 8: Question (NULL if none).
#     Col. 9: Answer.
#     Col. 10: Whether or not answer was correct (NULL if N/A).
#     Col. 11: Time taken to answer.
# Line 2:
#     Col. 1: Time results were received.
#     Col. 2: MD5 hash of participant's IP address.
#     Col. 3: Controller name.
#     Col. 4: Item number.
#     Col. 5: Element number.
#     Col. 6: Type.
#     Col. 7: Group.
#     Col. 8: Sentence (or sentence MD5).
1568301597,937f23df9d5c1516a692c889d2208ea5,Question,19,1,EveryNot.All.AllBias,4,What does the bride want to know?,Whether the groom has finished writing the invitations,1,4742
1568301597,937f23df9d5c1516a692c889d2208ea5,MultiSlider,78,0,EveryNot.None.HowManyBias,24,Wayne is a diligent therapist who is always there for his patients. Today%2C he has a minor flu. His assistant asks how many appointments she has to cancel before he can come in. Wayne said%2C "Every appointment doesn't have to be cancelled."
# The lines below this comment are in groups of 2.
# The formats of the lines in each of these groups are as follows:
#
# Line 1:
#     Col. 1: Time results were received.
#     Col. 2: MD5 hash of participant's IP address.
#     Col. 3: Controller name.
#     Col. 4: Item number.
#     Col. 5: Element number.
#     Col. 6: Type.
#     Col. 7: Group.
#     Col. 8: Sentence (or sentence MD5).
# Line 2:
#     Col. 1: Time results were received.
#     Col. 2: MD5 hash of participant's IP address.
#     Col. 3: Controller name.
#     Col. 4: Item number.
#     Col. 5: Element number.
#     Col. 6: Type.
#     Col. 7: Group.
#     Col. 8: html1.
#     Col. 9: startValue.
#     Col. 10: endValue.
#     Col. 11: value.
1568301597,937f23df9d5c1516a692c889d2208ea5,MultiSlider,78,0,EveryNot.None.HowManyBias,24,How well do the following sentences describe what the speaker meant?
1568301597,937f23df9d5c1516a692c889d2208ea5,MultiSlider,78,0,EveryNot.None.HowManyBias,24,<b> All </b> of the appointments will have to be cancelled,0.00,100.00,2.50
# Columns below this comment are as follows:
# 1. Time results were received.
# 2. MD5 hash of participant's IP address.
# 3. Controller name.
# 4. Item number.
# 5. Element number.
# 6. Type.
# 7. Group.
# 8. html2.
# 9. startValue.
# 10. endValue.
# 11. value.
1568301597,937f23df9d5c1516a692c889d2208ea5,MultiSlider,78,0,EveryNot.None.HowManyBias,24,<b> None </b> of the appointments will have to be cancelled,0.00,100.00,8.50
1568301597,937f23df9d5c1516a692c889d2208ea5,MultiSlider,78,0,EveryNot.None.HowManyBias,24,<b> None </b> of the appointments will have to be cancelled,0.00,100.00,25.50
# The lines below this comment are in groups of 2.
# The formats of the lines in each of these groups are as follows:
#
# Line 1:
#     Col. 1: Time results were received.
#     Col. 2: MD5 hash of participant's IP address.
#     Col. 3: Controller name.
#     Col. 4: Item number.
#     Col. 5: Element number.
#     Col. 6: Type.
#     Col. 7: Group.
#     Col. 8: html.
#     Col. 9: startValue.
#     Col. 10: endValue.
#     Col. 11: value.
# Line 2:
#     Col. 1: Time results were received.
#     Col. 2: MD5 hash of participant's IP address.
#     Col. 3: Controller name.
#     Col. 4: Item number.
#     Col. 5: Element number.
#     Col. 6: Type.
#     Col. 7: Group.
#     Col. 8: Field name.
#     Col. 9: Field value.
1568301597,937f23df9d5c1516a692c889d2208ea5,MultiSlider,78,0,EveryNot.None.HowManyBias,24,<b> Some but not all </b> of the appointments will have to be cancelled,0.00,100.00,71.50
1568301597,937f23df9d5c1516a692c889d2208ea5,MultiSlider,78,0,EveryNot.None.HowManyBias,24,_REACTION_TIME_,17411
# The lines below this comment are in groups of 2.
# The formats of the lines in each of these groups are as follows:
#
# Line 1:
#     Col. 1: Time results were received.
#     Col. 2: MD5 hash of participant's IP address.
#     Col. 3: Controller name.
#     Col. 4: Item number.
#     Col. 5: Element number.
#     Col. 6: Type.
#     Col. 7: Group.
#     Col. 8: Question (NULL if none).
#     Col. 9: Answer.
#     Col. 10: Whether or not answer was correct (NULL if N/A).
#     Col. 11: Time taken to answer.
# Line 2:
#     Col. 1: Time results were received.
#     Col. 2: MD5 hash of participant's IP address.
#     Col. 3: Controller name.
#     Col. 4: Item number.
#     Col. 5: Element number.
#     Col. 6: Type.
#     Col. 7: Group.
#     Col. 8: Field name.
#     Col. 9: Field value.
1568301597,937f23df9d5c1516a692c889d2208ea5,Question,78,1,EveryNot.None.HowManyBias,24,What did Wayne's assistant ask about?,The number of appointments to cancel,1,8835
1568301597,937f23df9d5c1516a692c889d2208ea5,Form,8,0,end_experiment,NULL,_REACTION_TIME_,1815
#
# Results on Thursday September 12 2019 15:26:07 UTC.
# USER AGENT: Mozilla/5.0 (iPhone; CPU iPhone OS 12_4 like Mac OS X) AppleWebKit/605.1.15 (KHTML, like Gecko) Version/12.1.2 Mobile/15E148 Safari/604.1
# Design number was non-random = 0
#
# Columns below this comment are as follows:
# 1. Time results were received.
# 2. MD5 hash of participant's IP address.
# 3. Controller name.
# 4. Item number.
# 5. Element number.
# 6. Type.
# 7. Group.
# 8. Field name.
# 9. Field value.
1568301967,9dea9da04f6743a53563054725c76ae5,Form,7,0,consent,NULL,consent,yes
1568301967,9dea9da04f6743a53563054725c76ae5,Form,7,0,consent,NULL,_REACTION_TIME_,14644
1568301967,9dea9da04f6743a53563054725c76ae5,Form,1,0,intro,NULL,age,32
1568301967,9dea9da04f6743a53563054725c76ae5,Form,1,0,intro,NULL,natlang,English
1568301967,9dea9da04f6743a53563054725c76ae5,Form,1,0,intro,NULL,otherlang,Spanish
1568301967,9dea9da04f6743a53563054725c76ae5,Form,1,0,intro,NULL,Prolific,5d4ed413222ba2001a8a7f2b
1568301967,9dea9da04f6743a53563054725c76ae5,Form,1,0,intro,NULL,gender,male
1568301967,9dea9da04f6743a53563054725c76ae5,Form,1,0,intro,NULL,_REACTION_TIME_,260825
1568301967,9dea9da04f6743a53563054725c76ae5,Form,2,0,intro1,NULL,_REACTION_TIME_,12309
1568301967,9dea9da04f6743a53563054725c76ae5,Form,3,0,intro2,NULL,_REACTION_TIME_,33155
1568301967,9dea9da04f6743a53563054725c76ae5,Form,4,0,intro3,NULL,_REACTION_TIME_,22652
# Columns below this comment are as follows:
# 1. Time results were received.
# 2. MD5 hash of participant's IP address.
# 3. Controller name.
# 4. Item number.
# 5. Element number.
# 6. Type.
# 7. Group.
# 8. Sentence (or sentence MD5).
1568301967,9dea9da04f6743a53563054725c76ae5,MultiSlider,18,0,EveryNot.All.HowManyBias,4,The couple has been planning their wedding for next month. The bride wants to know if they are behind schedule to finish writing the invitations. The groom says%2C "Every wedding invitation hasn't been written."
1568301967,9dea9da04f6743a53563054725c76ae5,MultiSlider,18,0,EveryNot.All.HowManyBias,4,How well do the following sentences describe what the speaker meant?
# Columns below this comment are as follows:
# 1. Time results were received.
# 2. MD5 hash of participant's IP address.
# 3. Controller name.
# 4. Item number.
# 5. Element number.
# 6. Type.
# 7. Group.
# 8. html1.
# 9. startValue.
# 10. endValue.
# 11. value.
1568301967,9dea9da04f6743a53563054725c76ae5,MultiSlider,18,0,EveryNot.All.HowManyBias,4, The couple has written <b> some but not all </b>of the wedding invitations,0.00,100.00,0.00
1568301967,9dea9da04f6743a53563054725c76ae5,MultiSlider,18,0,EveryNot.All.HowManyBias,4, The couple has written <b> some but not all </b>of the wedding invitations,0.00,100.00,0.00
1568301967,9dea9da04f6743a53563054725c76ae5,MultiSlider,18,0,EveryNot.All.HowManyBias,4, The couple has written <b> some but not all </b>of the wedding invitations,0.00,100.00,0.00
1568301967,9dea9da04f6743a53563054725c76ae5,MultiSlider,18,0,EveryNot.All.HowManyBias,4, The couple has written <b> some but not all </b>of the wedding invitations,0.00,100.00,0.00
1568301967,9dea9da04f6743a53563054725c76ae5,MultiSlider,18,0,EveryNot.All.HowManyBias,4, The couple has written <b> some but not all </b>of the wedding invitations,0.00,100.00,0.00
1568301967,9dea9da04f6743a53563054725c76ae5,MultiSlider,18,0,EveryNot.All.HowManyBias,4, The couple has written <b> some but not all </b>of the wedding invitations,0.00,100.00,0.00
1568301967,9dea9da04f6743a53563054725c76ae5,MultiSlider,18,0,EveryNot.All.HowManyBias,4, The couple has written <b> some but not all </b>of the wedding invitations,0.00,100.00,0.00
1568301967,9dea9da04f6743a53563054725c76ae5,MultiSlider,18,0,EveryNot.All.HowManyBias,4, The couple has written <b> some but not all </b>of the wedding invitations,0.00,100.00,12.50
1568301967,9dea9da04f6743a53563054725c76ae5,MultiSlider,18,0,EveryNot.All.HowManyBias,4, The couple has written <b> some but not all </b>of the wedding invitations,0.00,100.00,24.50
1568301967,9dea9da04f6743a53563054725c76ae5,MultiSlider,18,0,EveryNot.All.HowManyBias,4, The couple has written <b> some but not all </b>of the wedding invitations,0.00,100.00,25.83
1568301967,9dea9da04f6743a53563054725c76ae5,MultiSlider,18,0,EveryNot.All.HowManyBias,4, The couple has written <b> some but not all </b>of the wedding invitations,0.00,100.00,24.83
1568301967,9dea9da04f6743a53563054725c76ae5,MultiSlider,18,0,EveryNot.All.HowManyBias,4, The couple has written <b> some but not all </b>of the wedding invitations,0.00,100.00,28.17
1568301967,9dea9da04f6743a53563054725c76ae5,MultiSlider,18,0,EveryNot.All.HowManyBias,4, The couple has written <b> some but not all </b>of the wedding invitations,0.00,100.00,0.00
1568301967,9dea9da04f6743a53563054725c76ae5,MultiSlider,18,0,EveryNot.All.HowManyBias,4, The couple has written <b> some but not all </b>of the wedding invitations,0.00,100.00,0.00
1568301967,9dea9da04f6743a53563054725c76ae5,MultiSlider,18,0,EveryNot.All.HowManyBias,4, The couple has written <b> some but not all </b>of the wedding invitations,0.00,100.00,0.00
1568301967,9dea9da04f6743a53563054725c76ae5,MultiSlider,18,0,EveryNot.All.HowManyBias,4, The couple has written <b> some but not all </b>of the wedding invitations,0.00,100.00,11.50
1568301967,9dea9da04f6743a53563054725c76ae5,MultiSlider,18,0,EveryNot.All.HowManyBias,4, The couple has written <b> some but not all </b>of the wedding invitations,0.00,100.00,0.00
1568301967,9dea9da04f6743a53563054725c76ae5,MultiSlider,18,0,EveryNot.All.HowManyBias,4, The couple has written <b> some but not all </b>of the wedding invitations,0.00,100.00,0.00
1568301967,9dea9da04f6743a53563054725c76ae5,MultiSlider,18,0,EveryNot.All.HowManyBias,4, The couple has written <b> some but not all </b>of the wedding invitations,0.00,100.00,57.17
1568301967,9dea9da04f6743a53563054725c76ae5,MultiSlider,18,0,EveryNot.All.HowManyBias,4, The couple has written <b> some but not all </b>of the wedding invitations,0.00,100.00,63.83
1568301967,9dea9da04f6743a53563054725c76ae5,MultiSlider,18,0,EveryNot.All.HowManyBias,4, The couple has written <b> some but not all </b>of the wedding invitations,0.00,100.00,70.50
1568301967,9dea9da04f6743a53563054725c76ae5,MultiSlider,18,0,EveryNot.All.HowManyBias,4, The couple has written <b> some but not all </b>of the wedding invitations,0.00,100.00,0.00
1568301967,9dea9da04f6743a53563054725c76ae5,MultiSlider,18,0,EveryNot.All.HowManyBias,4, The couple has written <b> some but not all </b>of the wedding invitations,0.00,100.00,0.00
1568301967,9dea9da04f6743a53563054725c76ae5,MultiSlider,18,0,EveryNot.All.HowManyBias,4, The couple has written <b> some but not all </b>of the wedding invitations,0.00,100.00,68.50
1568301967,9dea9da04f6743a53563054725c76ae5,MultiSlider,18,0,EveryNot.All.HowManyBias,4, The couple has written <b> some but not all </b>of the wedding invitations,0.00,100.00,86.50
# The lines below this comment are in groups of 2.
# The formats of the lines in each of these groups are as follows:
#
# Line 1:
#     Col. 1: Time results were received.
#     Col. 2: MD5 hash of participant's IP address.
#     Col. 3: Controller name.
#     Col. 4: Item number.
#     Col. 5: Element number.
#     Col. 6: Type.
#     Col. 7: Group.
#     Col. 8: html2.
#     Col. 9: startValue.
#     Col. 10: endValue.
#     Col. 11: value.
# Line 2:
#     Col. 1: Time results were received.
#     Col. 2: MD5 hash of participant's IP address.
#     Col. 3: Controller name.
#     Col. 4: Item number.
#     Col. 5: Element number.
#     Col. 6: Type.
#     Col. 7: Group.
#     Col. 8: html.
#     Col. 9: startValue.
#     Col. 10: endValue.
#     Col. 11: value.
1568301967,9dea9da04f6743a53563054725c76ae5,MultiSlider,18,0,EveryNot.All.HowManyBias,4, The couple has written <b> all </b>of the wedding invitations,0.00,100.00,0.00
1568301967,9dea9da04f6743a53563054725c76ae5,MultiSlider,18,0,EveryNot.All.HowManyBias,4, The couple hasn't written <b> any </b>of the wedding invitations,0.00,100.00,0.00
# Columns below this comment are as follows:
# 1. Time results were received.
# 2. MD5 hash of participant's IP address.
# 3. Controller name.
# 4. Item number.
# 5. Element number.
# 6. Type.
# 7. Group.
# 8. html.
# 9. startValue.
# 10. endValue.
# 11. value.
1568301967,9dea9da04f6743a53563054725c76ae5,MultiSlider,18,0,EveryNot.All.HowManyBias,4, The couple hasn't written <b> any </b>of the wedding invitations,0.00,100.00,66.83
1568301967,9dea9da04f6743a53563054725c76ae5,MultiSlider,18,0,EveryNot.All.HowManyBias,4, The couple hasn't written <b> any </b>of the wedding invitations,0.00,100.00,60.17
1568301967,9dea9da04f6743a53563054725c76ae5,MultiSlider,18,0,EveryNot.All.HowManyBias,4, The couple hasn't written <b> any </b>of the wedding invitations,0.00,100.00,73.83
1568301967,9dea9da04f6743a53563054725c76ae5,MultiSlider,18,0,EveryNot.All.HowManyBias,4, The couple hasn't written <b> any </b>of the wedding invitations,0.00,100.00,58.83
# The lines below this comment are in groups of 2.
# The formats of the lines in each of these groups are as follows:
#
# Line 1:
#     Col. 1: Time results were received.
#     Col. 2: MD5 hash of participant's IP address.
#     Col. 3: Controller name.
#     Col. 4: Item number.
#     Col. 5: Element number.
#     Col. 6: Type.
#     Col. 7: Group.
#     Col. 8: Field name.
#     Col. 9: Field value.
# Line 2:
#     Col. 1: Time results were received.
#     Col. 2: MD5 hash of participant's IP address.
#     Col. 3: Controller name.
#     Col. 4: Item number.
#     Col. 5: Element number.
#     Col. 6: Type.
#     Col. 7: Group.
#     Col. 8: Question (NULL if none).
#     Col. 9: Answer.
#     Col. 10: Whether or not answer was correct (NULL if N/A).
#     Col. 11: Time taken to answer.
1568301967,9dea9da04f6743a53563054725c76ae5,MultiSlider,18,0,EveryNot.All.HowManyBias,4,_REACTION_TIME_,180573
1568301967,9dea9da04f6743a53563054725c76ae5,Question,18,1,EveryNot.All.HowManyBias,4,What does the bride want to know?,Whether they are behind schedule for writing the invitations,1,6687
# Columns below this comment are as follows:
# 1. Time results were received.
# 2. MD5 hash of participant's IP address.
# 3. Controller name.
# 4. Item number.
# 5. Element number.
# 6. Type.
# 7. Group.
# 8. Sentence (or sentence MD5).
1568301967,9dea9da04f6743a53563054725c76ae5,MultiSlider,76,0,EveryNot.None.AllBias,23,The hospital has the best doctors in the country. One day%2C five patients had to be operated on for fractures in arms and legs. Afterwards%2C a news reporter asked whether the patients had been successfully treated. The hospital manager said%2C "Every operation wasn't a failure."
1568301967,9dea9da04f6743a53563054725c76ae5,MultiSlider,76,0,EveryNot.None.AllBias,23,How well do the following sentences describe what the speaker meant?
# The lines below this comment are in groups of 2.
# The formats of the lines in each of these groups are as follows:
#
# Line 1:
#     Col. 1: Time results were received.
#     Col. 2: MD5 hash of participant's IP address.
#     Col. 3: Controller name.
#     Col. 4: Item number.
#     Col. 5: Element number.
#     Col. 6: Type.
#     Col. 7: Group.
#     Col. 8: html1.
#     Col. 9: startValue.
#     Col. 10: endValue.
#     Col. 11: value.
# Line 2:
#     Col. 1: Time results were received.
#     Col. 2: MD5 hash of participant's IP address.
#     Col. 3: Controller name.
#     Col. 4: Item number.
#     Col. 5: Element number.
#     Col. 6: Type.
#     Col. 7: Group.
#     Col. 8: html2.
#     Col. 9: startValue.
#     Col. 10: endValue.
#     Col. 11: value.
1568301967,9dea9da04f6743a53563054725c76ae5,MultiSlider,76,0,EveryNot.None.AllBias,23,<b> None </b> of the operations were successful,0.00,100.00,5.83
1568301967,9dea9da04f6743a53563054725c76ae5,MultiSlider,76,0,EveryNot.None.AllBias,23,<b> Some but not all </b> of the operations were successful,0.00,100.00,89.50
# The lines below this comment are in groups of 2.
# The formats of the lines in each of these groups are as follows:
#
# Line 1:
#     Col. 1: Time results were received.
#     Col. 2: MD5 hash of participant's IP address.
#     Col. 3: Controller name.
#     Col. 4: Item number.
#     Col. 5: Element number.
#     Col. 6: Type.
#     Col. 7: Group.
#     Col. 8: html.
#     Col. 9: startValue.
#     Col. 10: endValue.
#     Col. 11: value.
# Line 2:
#     Col. 1: Time results were received.
#     Col. 2: MD5 hash of participant's IP address.
#     Col. 3: Controller name.
#     Col. 4: Item number.
#     Col. 5: Element number.
#     Col. 6: Type.
#     Col. 7: Group.
#     Col. 8: Field name.
#     Col. 9: Field value.
1568301967,9dea9da04f6743a53563054725c76ae5,MultiSlider,76,0,EveryNot.None.AllBias,23,<b> All </b> of the operations were successful,0.00,100.00,71.50
1568301967,9dea9da04f6743a53563054725c76ae5,MultiSlider,76,0,EveryNot.None.AllBias,23,_REACTION_TIME_,32290
# The lines below this comment are in groups of 2.
# The formats of the lines in each of these groups are as follows:
#
# Line 1:
#     Col. 1: Time results were received.
#     Col. 2: MD5 hash of participant's IP address.
#     Col. 3: Controller name.
#     Col. 4: Item number.
#     Col. 5: Element number.
#     Col. 6: Type.
#     Col. 7: Group.
#     Col. 8: Question (NULL if none).
#     Col. 9: Answer.
#     Col. 10: Whether or not answer was correct (NULL if N/A).
#     Col. 11: Time taken to answer.
# Line 2:
#     Col. 1: Time results were received.
#     Col. 2: MD5 hash of participant's IP address.
#     Col. 3: Controller name.
#     Col. 4: Item number.
#     Col. 5: Element number.
#     Col. 6: Type.
#     Col. 7: Group.
#     Col. 8: Sentence (or sentence MD5).
1568301967,9dea9da04f6743a53563054725c76ae5,Question,76,1,EveryNot.None.AllBias,23,Where did the patients need to be operated on?,Arms,1,4694
1568301967,9dea9da04f6743a53563054725c76ae5,MultiSlider,44,0,EveryNot.Some.NoneBias,12,Sue and Marc went to a two-day science exhibition. On the first day%2C the organizers approached them and asked if they had already been to any of the booths. Sue said%2C "Every booth hasn't been visited."
# The lines below this comment are in groups of 2.
