#
# Results on Thursday September 12 2019 19:22:10 UTC.
# USER AGENT: Mozilla/5.0 (Windows NT 10.0; Win64; x64) AppleWebKit/537.36 (KHTML, like Gecko) Chrome/64.0.3282.140 Safari/537.36 Edge/17.17134
# Design number was non-random = 2
#
# Columns below this comment are as follows:
# 1. Time results were received.
# 2. MD5 hash of participant's IP address.
# 3. Controller name.
# 4. Item number.
# 5. Element number.
# 6. Type.
# 7. Group.
# 8. Field name.
# 9. Field value.
1568316131,2eeb9ff392036e4023983756a1565be9,Form,7,0,consent,NULL,consent,yes
1568316131,2eeb9ff392036e4023983756a1565be9,Form,7,0,consent,NULL,_REACTION_TIME_,9066
1568316131,2eeb9ff392036e4023983756a1565be9,Form,1,0,intro,NULL,age,24
1568316131,2eeb9ff392036e4023983756a1565be9,Form,1,0,intro,NULL,natlang,English
1568316131,2eeb9ff392036e4023983756a1565be9,Form,1,0,intro,NULL,otherlang,no
1568316131,2eeb9ff392036e4023983756a1565be9,Form,1,0,intro,NULL,Prolific,5d7943c737bf400001578844
1568316131,2eeb9ff392036e4023983756a1565be9,Form,1,0,intro,NULL,gender,female
1568316131,2eeb9ff392036e4023983756a1565be9,Form,1,0,intro,NULL,_REACTION_TIME_,27165
1568316131,2eeb9ff392036e4023983756a1565be9,Form,2,0,intro1,NULL,_REACTION_TIME_,3813
1568316131,2eeb9ff392036e4023983756a1565be9,Form,3,0,intro2,NULL,_REACTION_TIME_,17315
1568316131,2eeb9ff392036e4023983756a1565be9,Form,4,0,intro3,NULL,_REACTION_TIME_,8097
# Columns below this comment are as follows:
# 1. Time results were received.
# 2. MD5 hash of participant's IP address.
# 3. Controller name.
# 4. Item number.
# 5. Element number.
# 6. Type.
# 7. Group.
# 8. Sentence (or sentence MD5).
1568316131,2eeb9ff392036e4023983756a1565be9,MultiSlider,25,0,EveryNot.All.AllBias,6,Eric is a professional producer working on a new album. One day%2C he called the composer  to remind him that all the new songs need to have been demoed already. The hosts replied%2C "Every song hasn't been demoed."
1568316131,2eeb9ff392036e4023983756a1565be9,MultiSlider,25,0,EveryNot.All.AllBias,6,How well do the following sentences describe what the speaker meant?
# Columns below this comment are as follows:
# 1. Time results were received.
# 2. MD5 hash of participant's IP address.
# 3. Controller name.
# 4. Item number.
# 5. Element number.
# 6. Type.
# 7. Group.
# 8. html1.
# 9. startValue.
# 10. endValue.
# 11. value.
1568316131,2eeb9ff392036e4023983756a1565be9,MultiSlider,25,0,EveryNot.All.AllBias,6,<b> Some but not all </b> of the new songs have been demoed,0.00,100.00,63.83
1568316131,2eeb9ff392036e4023983756a1565be9,MultiSlider,25,0,EveryNot.All.AllBias,6,<b> Some but not all </b> of the new songs have been demoed,0.00,100.00,96.83
# Columns below this comment are as follows:
# 1. Time results were received.
# 2. MD5 hash of participant's IP address.
# 3. Controller name.
# 4. Item number.
# 5. Element number.
# 6. Type.
# 7. Group.
# 8. html2.
# 9. startValue.
# 10. endValue.
# 11. value.
1568316131,2eeb9ff392036e4023983756a1565be9,MultiSlider,25,0,EveryNot.All.AllBias,6,<b> All </b> of the new songs have been demoed,0.00,100.00,7.50
1568316131,2eeb9ff392036e4023983756a1565be9,MultiSlider,25,0,EveryNot.All.AllBias,6,<b> All </b> of the new songs have been demoed,0.00,100.00,29.17
1568316131,2eeb9ff392036e4023983756a1565be9,MultiSlider,25,0,EveryNot.All.AllBias,6,<b> All </b> of the new songs have been demoed,0.00,100.00,52.50
1568316131,2eeb9ff392036e4023983756a1565be9,MultiSlider,25,0,EveryNot.All.AllBias,6,<b> All </b> of the new songs have been demoed,0.00,100.00,29.17
# The lines below this comment are in groups of 2.
# The formats of the lines in each of these groups are as follows:
#
# Line 1:
#     Col. 1: Time results were received.
#     Col. 2: MD5 hash of participant's IP address.
#     Col. 3: Controller name.
#     Col. 4: Item number.
#     Col. 5: Element number.
#     Col. 6: Type.
#     Col. 7: Group.
#     Col. 8: html.
#     Col. 9: startValue.
#     Col. 10: endValue.
#     Col. 11: value.
# Line 2:
#     Col. 1: Time results were received.
#     Col. 2: MD5 hash of participant's IP address.
#     Col. 3: Controller name.
#     Col. 4: Item number.
#     Col. 5: Element number.
#     Col. 6: Type.
#     Col. 7: Group.
#     Col. 8: Field name.
#     Col. 9: Field value.
1568316131,2eeb9ff392036e4023983756a1565be9,MultiSlider,25,0,EveryNot.All.AllBias,6,<b> None </b> of the new songs have been demoed,0.00,100.00,13.17
1568316131,2eeb9ff392036e4023983756a1565be9,MultiSlider,25,0,EveryNot.All.AllBias,6,_REACTION_TIME_,56620
# Columns below this comment are as follows:
# 1. Time results were received.
# 2. MD5 hash of participant's IP address.
# 3. Controller name.
# 4. Item number.
# 5. Element number.
# 6. Type.
# 7. Group.
# 8. Sentence (or sentence MD5).
1568316131,2eeb9ff392036e4023983756a1565be9,MultiSlider,70,0,EveryNot.None.AllBias,21,Julia is a straight-A student. This semester%2C she enrolled for the easiest classes. After the semester%2C her mother phoned her to find out if her daughter had made a mess of all of her classes. Julia said: "Every class wasn't a fail."
1568316131,2eeb9ff392036e4023983756a1565be9,MultiSlider,70,0,EveryNot.None.AllBias,21,How well do the following sentences describe what the speaker meant?
# The lines below this comment are in groups of 2.
# The formats of the lines in each of these groups are as follows:
#
# Line 1:
#     Col. 1: Time results were received.
#     Col. 2: MD5 hash of participant's IP address.
#     Col. 3: Controller name.
#     Col. 4: Item number.
#     Col. 5: Element number.
#     Col. 6: Type.
#     Col. 7: Group.
#     Col. 8: html1.
#     Col. 9: startValue.
#     Col. 10: endValue.
#     Col. 11: value.
# Line 2:
#     Col. 1: Time results were received.
#     Col. 2: MD5 hash of participant's IP address.
#     Col. 3: Controller name.
#     Col. 4: Item number.
#     Col. 5: Element number.
#     Col. 6: Type.
#     Col. 7: Group.
#     Col. 8: html2.
#     Col. 9: startValue.
#     Col. 10: endValue.
#     Col. 11: value.
1568316131,2eeb9ff392036e4023983756a1565be9,MultiSlider,70,0,EveryNot.None.AllBias,21, Julia failed<b> some but not all </b>of the classes,0.00,100.00,78.83
1568316131,2eeb9ff392036e4023983756a1565be9,MultiSlider,70,0,EveryNot.None.AllBias,21, Julia failed<b> all </b>of the classes,0.00,100.00,5.50
# The lines below this comment are in groups of 2.
# The formats of the lines in each of these groups are as follows:
#
# Line 1:
#     Col. 1: Time results were received.
#     Col. 2: MD5 hash of participant's IP address.
#     Col. 3: Controller name.
#     Col. 4: Item number.
#     Col. 5: Element number.
#     Col. 6: Type.
#     Col. 7: Group.
#     Col. 8: html.
#     Col. 9: startValue.
#     Col. 10: endValue.
#     Col. 11: value.
# Line 2:
#     Col. 1: Time results were received.
#     Col. 2: MD5 hash of participant's IP address.
#     Col. 3: Controller name.
#     Col. 4: Item number.
#     Col. 5: Element number.
#     Col. 6: Type.
#     Col. 7: Group.
#     Col. 8: Field name.
#     Col. 9: Field value.
1568316131,2eeb9ff392036e4023983756a1565be9,MultiSlider,70,0,EveryNot.None.AllBias,21, Julia didn't fail<b> any </b>of the classes,0.00,100.00,83.83
1568316131,2eeb9ff392036e4023983756a1565be9,MultiSlider,70,0,EveryNot.None.AllBias,21,_REACTION_TIME_,33540
# The lines below this comment are in groups of 2.
# The formats of the lines in each of these groups are as follows:
#
# Line 1:
#     Col. 1: Time results were received.
#     Col. 2: MD5 hash of participant's IP address.
#     Col. 3: Controller name.
#     Col. 4: Item number.
#     Col. 5: Element number.
#     Col. 6: Type.
#     Col. 7: Group.
#     Col. 8: Question (NULL if none).
#     Col. 9: Answer.
#     Col. 10: Whether or not answer was correct (NULL if N/A).
#     Col. 11: Time taken to answer.
# Line 2:
#     Col. 1: Time results were received.
#     Col. 2: MD5 hash of participant's IP address.
#     Col. 3: Controller name.
#     Col. 4: Item number.
#     Col. 5: Element number.
#     Col. 6: Type.
#     Col. 7: Group.
#     Col. 8: Sentence (or sentence MD5).
1568316131,2eeb9ff392036e4023983756a1565be9,Question,70,1,EveryNot.None.AllBias,21,What classes did Julia enroll for?,The easy ones,1,5774
1568316131,2eeb9ff392036e4023983756a1565be9,MultiSlider,52,0,EveryNot.Some.AllBias,15,Barney has been submitting recipes to a famous cooking website for some time now. His partner asked whether all of his submissions had been posted on the website. He said: "Every submission hasn't been published."
# The lines below this comment are in groups of 2.
# The formats of the lines in each of these groups are as follows:
#
# Line 1:
#     Col. 1: Time results were received.
#     Col. 2: MD5 hash of participant's IP address.
#     Col. 3: Controller name.
#     Col. 4: Item number.
#     Col. 5: Element number.
#     Col. 6: Type.
#     Col. 7: Group.
#     Col. 8: Sentence (or sentence MD5).
# Line 2:
#     Col. 1: Time results were received.
#     Col. 2: MD5 hash of participant's IP address.
#     Col. 3: Controller name.
#     Col. 4: Item number.
#     Col. 5: Element number.
#     Col. 6: Type.
#     Col. 7: Group.
#     Col. 8: html1.
#     Col. 9: startValue.
#     Col. 10: endValue.
#     Col. 11: value.
1568316131,2eeb9ff392036e4023983756a1565be9,MultiSlider,52,0,EveryNot.Some.AllBias,15,How well do the following sentences describe what the speaker meant?
1568316131,2eeb9ff392036e4023983756a1565be9,MultiSlider,52,0,EveryNot.Some.AllBias,15,<b> Some but not all </b> of Barney's submissions have been published,0.00,100.00,90.17
# Columns below this comment are as follows:
# 1. Time results were received.
# 2. MD5 hash of participant's IP address.
# 3. Controller name.
# 4. Item number.
# 5. Element number.
# 6. Type.
# 7. Group.
# 8. html.
# 9. startValue.
# 10. endValue.
# 11. value.
1568316131,2eeb9ff392036e4023983756a1565be9,MultiSlider,52,0,EveryNot.Some.AllBias,15,<b> None </b> of Barney's submissions have been published,0.00,100.00,12.83
1568316131,2eeb9ff392036e4023983756a1565be9,MultiSlider,52,0,EveryNot.Some.AllBias,15,<b> None </b> of Barney's submissions have been published,0.00,100.00,3.83
# The lines below this comment are in groups of 2.
# The formats of the lines in each of these groups are as follows:
#
# Line 1:
#     Col. 1: Time results were received.
#     Col. 2: MD5 hash of participant's IP address.
#     Col. 3: Controller name.
#     Col. 4: Item number.
#     Col. 5: Element number.
#     Col. 6: Type.
#     Col. 7: Group.
#     Col. 8: Field name.
#     Col. 9: Field value.
# Line 2:
#     Col. 1: Time results were received.
#     Col. 2: MD5 hash of participant's IP address.
#     Col. 3: Controller name.
#     Col. 4: Item number.
#     Col. 5: Element number.
#     Col. 6: Type.
#     Col. 7: Group.
#     Col. 8: Question (NULL if none).
#     Col. 9: Answer.
#     Col. 10: Whether or not answer was correct (NULL if N/A).
#     Col. 11: Time taken to answer.
1568316131,2eeb9ff392036e4023983756a1565be9,MultiSlider,52,0,EveryNot.Some.AllBias,15,_REACTION_TIME_,21682
1568316131,2eeb9ff392036e4023983756a1565be9,Question,52,1,EveryNot.Some.AllBias,15,What did Barney submit to the website?,His recipes,1,2883
# Columns below this comment are as follows:
# 1. Time results were received.
# 2. MD5 hash of participant's IP address.
# 3. Controller name.
# 4. Item number.
# 5. Element number.
# 6. Type.
# 7. Group.
# 8. Sentence (or sentence MD5).
1568316131,2eeb9ff392036e4023983756a1565be9,MultiSlider,43,0,EveryNot.Some.AllBias,12,Sue and Marc went to a two-day science exhibition. On the first day%2C the organizers approached them and asked if they had seen everything yet. Sue said%2C "Every booth hasn't been visited."
1568316131,2eeb9ff392036e4023983756a1565be9,MultiSlider,43,0,EveryNot.Some.AllBias,12,How well do the following sentences describe what the speaker meant?
# The lines below this comment are in groups of 2.
# The formats of the lines in each of these groups are as follows:
#
# Line 1:
#     Col. 1: Time results were received.
#     Col. 2: MD5 hash of participant's IP address.
#     Col. 3: Controller name.
#     Col. 4: Item number.
#     Col. 5: Element number.
#     Col. 6: Type.
#     Col. 7: Group.
#     Col. 8: html1.
#     Col. 9: startValue.
#     Col. 10: endValue.
#     Col. 11: value.
# Line 2:
#     Col. 1: Time results were received.
#     Col. 2: MD5 hash of participant's IP address.
#     Col. 3: Controller name.
#     Col. 4: Item number.
#     Col. 5: Element number.
#     Col. 6: Type.
#     Col. 7: Group.
#     Col. 8: html2.
#     Col. 9: startValue.
#     Col. 10: endValue.
#     Col. 11: value.
1568316131,2eeb9ff392036e4023983756a1565be9,MultiSlider,43,0,EveryNot.Some.AllBias,12,Sue and Marc have visited<b> some but not all </b>of the booths so far,0.00,100.00,94.83
1568316131,2eeb9ff392036e4023983756a1565be9,MultiSlider,43,0,EveryNot.Some.AllBias,12,Sue and Marc have visited<b> all </b>of the booths so far,0.00,100.00,23.83
# The lines below this comment are in groups of 2.
# The formats of the lines in each of these groups are as follows:
#
# Line 1:
#     Col. 1: Time results were received.
#     Col. 2: MD5 hash of participant's IP address.
#     Col. 3: Controller name.
#     Col. 4: Item number.
#     Col. 5: Element number.
#     Col. 6: Type.
#     Col. 7: Group.
#     Col. 8: html.
#     Col. 9: startValue.
#     Col. 10: endValue.
#     Col. 11: value.
# Line 2:
#     Col. 1: Time results were received.
#     Col. 2: MD5 hash of participant's IP address.
#     Col. 3: Controller name.
#     Col. 4: Item number.
#     Col. 5: Element number.
#     Col. 6: Type.
#     Col. 7: Group.
#     Col. 8: Field name.
#     Col. 9: Field value.
1568316131,2eeb9ff392036e4023983756a1565be9,MultiSlider,43,0,EveryNot.Some.AllBias,12,Sue and Marc haven't visited<b> any </b>of the booths so far,0.00,100.00,5.50
1568316131,2eeb9ff392036e4023983756a1565be9,MultiSlider,43,0,EveryNot.Some.AllBias,12,_REACTION_TIME_,20873
# The lines below this comment are in groups of 2.
# The formats of the lines in each of these groups are as follows:
#
# Line 1:
#     Col. 1: Time results were received.
#     Col. 2: MD5 hash of participant's IP address.
#     Col. 3: Controller name.
#     Col. 4: Item number.
#     Col. 5: Element number.
#     Col. 6: Type.
#     Col. 7: Group.
#     Col. 8: Question (NULL if none).
#     Col. 9: Answer.
#     Col. 10: Whether or not answer was correct (NULL if N/A).
#     Col. 11: Time taken to answer.
# Line 2:
#     Col. 1: Time results were received.
#     Col. 2: MD5 hash of participant's IP address.
#     Col. 3: Controller name.
#     Col. 4: Item number.
#     Col. 5: Element number.
#     Col. 6: Type.
#     Col. 7: Group.
#     Col. 8: Sentence (or sentence MD5).
1568316131,2eeb9ff392036e4023983756a1565be9,Question,43,1,EveryNot.Some.AllBias,12,What did the organizers ask?,The number of booths Sue and Marc visited,0,4309
1568316131,2eeb9ff392036e4023983756a1565be9,MultiSlider,29,0,EveryNot.All.NoneBias,7,The nursery normally changes infants' diapers before they go to nap. This afternoon%2C a health inspector wanted to see if any of the infants had been changed before nap time. The nurse reported%2C "Every infant hasn't been changed."
# The lines below this comment are in groups of 2.
# The formats of the lines in each of these groups are as follows:
#
# Line 1:
#     Col. 1: Time results were received.
#     Col. 2: MD5 hash of participant's IP address.
#     Col. 3: Controller name.
#     Col. 4: Item number.
#     Col. 5: Element number.
#     Col. 6: Type.
#     Col. 7: Group.
#     Col. 8: Sentence (or sentence MD5).
# Line 2:
#     Col. 1: Time results were received.
#     Col. 2: MD5 hash of participant's IP address.
#     Col. 3: Controller name.
#     Col. 4: Item number.
#     Col. 5: Element number.
#     Col. 6: Type.
#     Col. 7: Group.
#     Col. 8: html1.
#     Col. 9: startValue.
#     Col. 10: endValue.
#     Col. 11: value.
1568316131,2eeb9ff392036e4023983756a1565be9,MultiSlider,29,0,EveryNot.All.NoneBias,7,How well do the following sentences describe what the speaker meant?
1568316131,2eeb9ff392036e4023983756a1565be9,MultiSlider,29,0,EveryNot.All.NoneBias,7,<b> None </b> of the infants have been changed,0.00,100.00,17.83
# The lines below this comment are in groups of 2.
# The formats of the lines in each of these groups are as follows:
#
# Line 1:
#     Col. 1: Time results were received.
#     Col. 2: MD5 hash of participant's IP address.
#     Col. 3: Controller name.
#     Col. 4: Item number.
#     Col. 5: Element number.
#     Col. 6: Type.
#     Col. 7: Group.
#     Col. 8: html2.
#     Col. 9: startValue.
#     Col. 10: endValue.
#     Col. 11: value.
# Line 2:
#     Col. 1: Time results were received.
#     Col. 2: MD5 hash of participant's IP address.
#     Col. 3: Controller name.
#     Col. 4: Item number.
#     Col. 5: Element number.
#     Col. 6: Type.
#     Col. 7: Group.
#     Col. 8: html.
#     Col. 9: startValue.
#     Col. 10: endValue.
#     Col. 11: value.
1568316131,2eeb9ff392036e4023983756a1565be9,MultiSlider,29,0,EveryNot.All.NoneBias,7,<b> Some but not all </b> of the infants have been changed,0.00,100.00,99.17
1568316131,2eeb9ff392036e4023983756a1565be9,MultiSlider,29,0,EveryNot.All.NoneBias,7,<b> All </b> of the infants have been changed,0.00,100.00,82.17
# The lines below this comment are in groups of 2.
# The formats of the lines in each of these groups are as follows:
#
# Line 1:
#     Col. 1: Time results were received.
#     Col. 2: MD5 hash of participant's IP address.
#     Col. 3: Controller name.
#     Col. 4: Item number.
#     Col. 5: Element number.
#     Col. 6: Type.
#     Col. 7: Group.
#     Col. 8: Field name.
#     Col. 9: Field value.
# Line 2:
#     Col. 1: Time results were received.
#     Col. 2: MD5 hash of participant's IP address.
#     Col. 3: Controller name.
#     Col. 4: Item number.
#     Col. 5: Element number.
#     Col. 6: Type.
#     Col. 7: Group.
#     Col. 8: Question (NULL if none).
#     Col. 9: Answer.
#     Col. 10: Whether or not answer was correct (NULL if N/A).
#     Col. 11: Time taken to answer.
1568316131,2eeb9ff392036e4023983756a1565be9,MultiSlider,29,0,EveryNot.All.NoneBias,7,_REACTION_TIME_,22229
1568316131,2eeb9ff392036e4023983756a1565be9,Question,29,1,EveryNot.All.NoneBias,7,When does the disper usually get changed?,Before a nap,1,2399
# Columns below this comment are as follows:
# 1. Time results were received.
# 2. MD5 hash of participant's IP address.
# 3. Controller name.
# 4. Item number.
# 5. Element number.
# 6. Type.
# 7. Group.
# 8. Sentence (or sentence MD5).
1568316131,2eeb9ff392036e4023983756a1565be9,MultiSlider,57,0,EveryNot.None.HowManyBias,17,Jack is an incompetent homicide detective trying to solve three recent murders. His boss tells him that he will get a bonus depending on his performance. Weeks later%2C Jack reported%2C "Every case hasn't been solved."
1568316131,2eeb9ff392036e4023983756a1565be9,MultiSlider,57,0,EveryNot.None.HowManyBias,17,How well do the following sentences describe what the speaker meant?
# Columns below this comment are as follows:
# 1. Time results were received.
# 2. MD5 hash of participant's IP address.
# 3. Controller name.
# 4. Item number.
# 5. Element number.
# 6. Type.
# 7. Group.
# 8. html1.
# 9. startValue.
# 10. endValue.
# 11. value.
1568316131,2eeb9ff392036e4023983756a1565be9,MultiSlider,57,0,EveryNot.None.HowManyBias,17, Jack solved <b> all </b>of the cases,0.00,100.00,3.83
1568316131,2eeb9ff392036e4023983756a1565be9,MultiSlider,57,0,EveryNot.None.HowManyBias,17, Jack solved <b> all </b>of the cases,0.00,100.00,39.83
# The lines below this comment are in groups of 2.
# The formats of the lines in each of these groups are as follows:
#
# Line 1:
#     Col. 1: Time results were received.
#     Col. 2: MD5 hash of participant's IP address.
#     Col. 3: Controller name.
#     Col. 4: Item number.
#     Col. 5: Element number.
#     Col. 6: Type.
#     Col. 7: Group.
#     Col. 8: html2.
#     Col. 9: startValue.
#     Col. 10: endValue.
#     Col. 11: value.
# Line 2:
#     Col. 1: Time results were received.
#     Col. 2: MD5 hash of participant's IP address.
#     Col. 3: Controller name.
#     Col. 4: Item number.
#     Col. 5: Element number.
#     Col. 6: Type.
#     Col. 7: Group.
#     Col. 8: html.
#     Col. 9: startValue.
#     Col. 10: endValue.
#     Col. 11: value.
1568316131,2eeb9ff392036e4023983756a1565be9,MultiSlider,57,0,EveryNot.None.HowManyBias,17, Jack didn't solve <b> any </b>of the cases,0.00,100.00,78.17
1568316131,2eeb9ff392036e4023983756a1565be9,MultiSlider,57,0,EveryNot.None.HowManyBias,17, Jack solved <b> some but not all </b>of the cases,0.00,100.00,77.83
# The lines below this comment are in groups of 2.
# The formats of the lines in each of these groups are as follows:
#
# Line 1:
#     Col. 1: Time results were received.
#     Col. 2: MD5 hash of participant's IP address.
#     Col. 3: Controller name.
#     Col. 4: Item number.
#     Col. 5: Element number.
#     Col. 6: Type.
#     Col. 7: Group.
#     Col. 8: Field name.
#     Col. 9: Field value.
# Line 2:
#     Col. 1: Time results were received.
#     Col. 2: MD5 hash of participant's IP address.
#     Col. 3: Controller name.
#     Col. 4: Item number.
#     Col. 5: Element number.
#     Col. 6: Type.
#     Col. 7: Group.
#     Col. 8: Question (NULL if none).
#     Col. 9: Answer.
#     Col. 10: Whether or not answer was correct (NULL if N/A).
#     Col. 11: Time taken to answer.
1568316131,2eeb9ff392036e4023983756a1565be9,MultiSlider,57,0,EveryNot.None.HowManyBias,17,_REACTION_TIME_,25188
1568316131,2eeb9ff392036e4023983756a1565be9,Question,57,1,EveryNot.None.HowManyBias,17,What is Jack's specialization?,Homicide,1,2009
# Columns below this comment are as follows:
# 1. Time results were received.
# 2. MD5 hash of participant's IP address.
# 3. Controller name.
# 4. Item number.
# 5. Element number.
# 6. Type.
# 7. Group.
# 8. Sentence (or sentence MD5).
1568316131,2eeb9ff392036e4023983756a1565be9,MultiSlider,79,0,EveryNot.None.AllBias,24,Wayne is a diligent therapist who is always there for his patients. Today%2C he has a minor flu. His assistant asks if she has to clean out his entire schedule for the day. Wayne said%2C "Every appointment doesn't have to be cancelled."
1568316131,2eeb9ff392036e4023983756a1565be9,MultiSlider,79,0,EveryNot.None.AllBias,24,How well do the following sentences describe what the speaker meant?
# The lines below this comment are in groups of 2.
# The formats of the lines in each of these groups are as follows:
#
# Line 1:
#     Col. 1: Time results were received.
#     Col. 2: MD5 hash of participant's IP address.
#     Col. 3: Controller name.
#     Col. 4: Item number.
#     Col. 5: Element number.
#     Col. 6: Type.
#     Col. 7: Group.
#     Col. 8: html2.
#     Col. 9: startValue.
#     Col. 10: endValue.
#     Col. 11: value.
# Line 2:
#     Col. 1: Time results were received.
#     Col. 2: MD5 hash of participant's IP address.
#     Col. 3: Controller name.
#     Col. 4: Item number.
#     Col. 5: Element number.
#     Col. 6: Type.
#     Col. 7: Group.
#     Col. 8: html.
#     Col. 9: startValue.
#     Col. 10: endValue.
#     Col. 11: value.
1568316131,2eeb9ff392036e4023983756a1565be9,MultiSlider,79,0,EveryNot.None.AllBias,24,<b> All </b> of the appointments will have to be cancelled,0.00,100.00,78.50
1568316131,2eeb9ff392036e4023983756a1565be9,MultiSlider,79,0,EveryNot.None.AllBias,24,<b> None </b> of the appointments will have to be cancelled,0.00,100.00,7.50
# The lines below this comment are in groups of 2.
# The formats of the lines in each of these groups are as follows:
#
# Line 1:
#     Col. 1: Time results were received.
#     Col. 2: MD5 hash of participant's IP address.
#     Col. 3: Controller name.
#     Col. 4: Item number.
#     Col. 5: Element number.
#     Col. 6: Type.
#     Col. 7: Group.
#     Col. 8: Field name.
#     Col. 9: Field value.
# Line 2:
#     Col. 1: Time results were received.
#     Col. 2: MD5 hash of participant's IP address.
#     Col. 3: Controller name.
#     Col. 4: Item number.
#     Col. 5: Element number.
#     Col. 6: Type.
#     Col. 7: Group.
#     Col. 8: Question (NULL if none).
#     Col. 9: Answer.
#     Col. 10: Whether or not answer was correct (NULL if N/A).
#     Col. 11: Time taken to answer.
1568316131,2eeb9ff392036e4023983756a1565be9,MultiSlider,79,0,EveryNot.None.AllBias,24,_REACTION_TIME_,27443
1568316131,2eeb9ff392036e4023983756a1565be9,Question,79,1,EveryNot.None.AllBias,24,What did Wayne's assistant ask about?,Whether any appointments need to be cancelled,0,5848
# Columns below this comment are as follows:
# 1. Time results were received.
# 2. MD5 hash of participant's IP address.
# 3. Controller name.
# 4. Item number.
# 5. Element number.
# 6. Type.
# 7. Group.
# 8. Sentence (or sentence MD5).
1568316131,2eeb9ff392036e4023983756a1565be9,MultiSlider,66,0,EveryNot.None.HowManyBias,20,Helena is a mediocre athlete who made a resolution to win three Olympic medals this year. Her coach thought that she would be motivated by the prizes%2C which was proportional to her performance in the game. Afterwards%2C the coach admitted%2C "Every medal wasn't won."
1568316131,2eeb9ff392036e4023983756a1565be9,MultiSlider,66,0,EveryNot.None.HowManyBias,20,How well do the following sentences describe what the speaker meant?
# The lines below this comment are in groups of 2.
# The formats of the lines in each of these groups are as follows:
#
# Line 1:
#     Col. 1: Time results were received.
#     Col. 2: MD5 hash of participant's IP address.
#     Col. 3: Controller name.
#     Col. 4: Item number.
#     Col. 5: Element number.
#     Col. 6: Type.
#     Col. 7: Group.
#     Col. 8: Field name.
#     Col. 9: Field value.
# Line 2:
#     Col. 1: Time results were received.
#     Col. 2: MD5 hash of participant's IP address.
#     Col. 3: Controller name.
#     Col. 4: Item number.
#     Col. 5: Element number.
#     Col. 6: Type.
#     Col. 7: Group.
#     Col. 8: Question (NULL if none).
#     Col. 9: Answer.
#     Col. 10: Whether or not answer was correct (NULL if N/A).
#     Col. 11: Time taken to answer.
1568316131,2eeb9ff392036e4023983756a1565be9,MultiSlider,66,0,EveryNot.None.HowManyBias,20,_REACTION_TIME_,17346
1568316131,2eeb9ff392036e4023983756a1565be9,Question,66,1,EveryNot.None.HowManyBias,20,What did Helena's coach think about her?,That winning any medal will be an honor,0,5242
# Columns below this comment are as follows:
# 1. Time results were received.
# 2. MD5 hash of participant's IP address.
# 3. Controller name.
# 4. Item number.
# 5. Element number.
# 6. Type.
# 7. Group.
# 8. Sentence (or sentence MD5).
1568316131,2eeb9ff392036e4023983756a1565be9,MultiSlider,61,0,EveryNot.None.AllBias,18,Paul lives on a sheep farm his parents bought for him%2C but plays video games all day. His parents called him and warned him that he must sell the entire herd to be able to continue living at the farm. Paul told them%2C "Every sheep won't be sold."
1568316131,2eeb9ff392036e4023983756a1565be9,MultiSlider,61,0,EveryNot.None.AllBias,18,How well do the following sentences describe what the speaker meant?
# The lines below this comment are in groups of 2.
# The formats of the lines in each of these groups are as follows:
#
# Line 1:
#     Col. 1: Time results were received.
#     Col. 2: MD5 hash of participant's IP address.
#     Col. 3: Controller name.
#     Col. 4: Item number.
#     Col. 5: Element number.
#     Col. 6: Type.
#     Col. 7: Group.
#     Col. 8: html1.
#     Col. 9: startValue.
#     Col. 10: endValue.
#     Col. 11: value.
# Line 2:
#     Col. 1: Time results were received.
#     Col. 2: MD5 hash of participant's IP address.
#     Col. 3: Controller name.
#     Col. 4: Item number.
#     Col. 5: Element number.
#     Col. 6: Type.
#     Col. 7: Group.
#     Col. 8: html.
#     Col. 9: startValue.
#     Col. 10: endValue.
#     Col. 11: value.
1568316131,2eeb9ff392036e4023983756a1565be9,MultiSlider,61,0,EveryNot.None.AllBias,18,<b> Some but not all </b> of the sheep will be sold,0.00,100.00,82.17
1568316131,2eeb9ff392036e4023983756a1565be9,MultiSlider,61,0,EveryNot.None.AllBias,18,<b> None </b> of the sheep will be sold,0.00,100.00,7.50
# The lines below this comment are in groups of 2.
# The formats of the lines in each of these groups are as follows:
#
# Line 1:
#     Col. 1: Time results were received.
#     Col. 2: MD5 hash of participant's IP address.
#     Col. 3: Controller name.
#     Col. 4: Item number.
#     Col. 5: Element number.
#     Col. 6: Type.
#     Col. 7: Group.
#     Col. 8: Field name.
#     Col. 9: Field value.
# Line 2:
#     Col. 1: Time results were received.
#     Col. 2: MD5 hash of participant's IP address.
#     Col. 3: Controller name.
#     Col. 4: Item number.
#     Col. 5: Element number.
#     Col. 6: Type.
#     Col. 7: Group.
#     Col. 8: Sentence (or sentence MD5).
1568316131,2eeb9ff392036e4023983756a1565be9,MultiSlider,61,0,EveryNot.None.AllBias,18,_REACTION_TIME_,25027
1568316131,2eeb9ff392036e4023983756a1565be9,MultiSlider,48,0,EveryNot.Some.HowManyBias,14,Roy recently started a career as a professional gamer. A journalist interviewed him%2C and asked how many of the five Major League Gaming tournaments he had been invited to. He admitted%2C "Every Major League Gaming tournament hasn't invited me."
# The lines below this comment are in groups of 2.
# The formats of the lines in each of these groups are as follows:
#
# Line 1:
#     Col. 1: Time results were received.
#     Col. 2: MD5 hash of participant's IP address.
#     Col. 3: Controller name.
#     Col. 4: Item number.
#     Col. 5: Element number.
#     Col. 6: Type.
#     Col. 7: Group.
#     Col. 8: Sentence (or sentence MD5).
# Line 2:
#     Col. 1: Time results were received.
#     Col. 2: MD5 hash of participant's IP address.
#     Col. 3: Controller name.
#     Col. 4: Item number.
#     Col. 5: Element number.
#     Col. 6: Type.
#     Col. 7: Group.
#     Col. 8: html1.
#     Col. 9: startValue.
#     Col. 10: endValue.
#     Col. 11: value.
1568316131,2eeb9ff392036e4023983756a1565be9,MultiSlider,48,0,EveryNot.Some.HowManyBias,14,How well do the following sentences describe what the speaker meant?
1568316131,2eeb9ff392036e4023983756a1565be9,MultiSlider,48,0,EveryNot.Some.HowManyBias,14, Roy has been invited to<b> all </b>of the Major League Gaming tournaments,0.00,100.00,68.17
# The lines below this comment are in groups of 2.
# The formats of the lines in each of these groups are as follows:
#
# Line 1:
#     Col. 1: Time results were received.
#     Col. 2: MD5 hash of participant's IP address.
#     Col. 3: Controller name.
#     Col. 4: Item number.
#     Col. 5: Element number.
#     Col. 6: Type.
#     Col. 7: Group.
#     Col. 8: html2.
#     Col. 9: startValue.
#     Col. 10: endValue.
#     Col. 11: value.
# Line 2:
#     Col. 1: Time results were received.
#     Col. 2: MD5 hash of participant's IP address.
#     Col. 3: Controller name.
#     Col. 4: Item number.
#     Col. 5: Element number.
#     Col. 6: Type.
#     Col. 7: Group.
#     Col. 8: html.
#     Col. 9: startValue.
#     Col. 10: endValue.
#     Col. 11: value.
1568316131,2eeb9ff392036e4023983756a1565be9,MultiSlider,48,0,EveryNot.Some.HowManyBias,14, Roy hasn't been invited to<b> any </b>of the Major League Gaming tournaments,0.00,100.00,64.83
1568316131,2eeb9ff392036e4023983756a1565be9,MultiSlider,48,0,EveryNot.Some.HowManyBias,14, Roy has been invited to<b> some but not all </b>of the Major League Gaming tournaments,0.00,100.00,68.83
# The lines below this comment are in groups of 2.
# The formats of the lines in each of these groups are as follows:
#
# Line 1:
#     Col. 1: Time results were received.
#     Col. 2: MD5 hash of participant's IP address.
#     Col. 3: Controller name.
#     Col. 4: Item number.
#     Col. 5: Element number.
#     Col. 6: Type.
#     Col. 7: Group.
#     Col. 8: Field name.
#     Col. 9: Field value.
# Line 2:
#     Col. 1: Time results were received.
#     Col. 2: MD5 hash of participant's IP address.
#     Col. 3: Controller name.
#     Col. 4: Item number.
#     Col. 5: Element number.
#     Col. 6: Type.
#     Col. 7: Group.
#     Col. 8: Sentence (or sentence MD5).
1568316131,2eeb9ff392036e4023983756a1565be9,MultiSlider,48,0,EveryNot.Some.HowManyBias,14,_REACTION_TIME_,20587
1568316131,2eeb9ff392036e4023983756a1565be9,MultiSlider,75,0,EveryNot.None.HowManyBias,23,The hospital has the best doctors in the country. One day%2C five patients had to be operated on for fractures in arms and legs. Afterwards%2C a news reporter asked how many of the patients had been successfully treated. The hospital manager said%2C "Every operation wasn't a failure."
# The lines below this comment are in groups of 2.
# The formats of the lines in each of these groups are as follows:
#
# Line 1:
#     Col. 1: Time results were received.
#     Col. 2: MD5 hash of participant's IP address.
#     Col. 3: Controller name.
#     Col. 4: Item number.
#     Col. 5: Element number.
#     Col. 6: Type.
#     Col. 7: Group.
#     Col. 8: Sentence (or sentence MD5).
# Line 2:
#     Col. 1: Time results were received.
#     Col. 2: MD5 hash of participant's IP address.
#     Col. 3: Controller name.
#     Col. 4: Item number.
#     Col. 5: Element number.
#     Col. 6: Type.
#     Col. 7: Group.
#     Col. 8: html.
#     Col. 9: startValue.
#     Col. 10: endValue.
#     Col. 11: value.
1568316131,2eeb9ff392036e4023983756a1565be9,MultiSlider,75,0,EveryNot.None.HowManyBias,23,How well do the following sentences describe what the speaker meant?
1568316131,2eeb9ff392036e4023983756a1565be9,MultiSlider,75,0,EveryNot.None.HowManyBias,23,<b> Some but not all </b> of the operations were successful,0.00,100.00,71.17
# The lines below this comment are in groups of 2.
# The formats of the lines in each of these groups are as follows:
#
# Line 1:
#     Col. 1: Time results were received.
#     Col. 2: MD5 hash of participant's IP address.
#     Col. 3: Controller name.
#     Col. 4: Item number.
#     Col. 5: Element number.
#     Col. 6: Type.
#     Col. 7: Group.
#     Col. 8: Field name.
#     Col. 9: Field value.
# Line 2:
#     Col. 1: Time results were received.
#     Col. 2: MD5 hash of participant's IP address.
#     Col. 3: Controller name.
#     Col. 4: Item number.
#     Col. 5: Element number.
#     Col. 6: Type.
#     Col. 7: Group.
#     Col. 8: Question (NULL if none).
#     Col. 9: Answer.
#     Col. 10: Whether or not answer was correct (NULL if N/A).
#     Col. 11: Time taken to answer.
1568316131,2eeb9ff392036e4023983756a1565be9,MultiSlider,75,0,EveryNot.None.HowManyBias,23,_REACTION_TIME_,32800
1568316131,2eeb9ff392036e4023983756a1565be9,Question,75,1,EveryNot.None.HowManyBias,23,Where did the patients need to be operated on?,Arms,1,3626
# Columns below this comment are as follows:
# 1. Time results were received.
# 2. MD5 hash of participant's IP address.
# 3. Controller name.
# 4. Item number.
# 5. Element number.
# 6. Type.
# 7. Group.
# 8. Sentence (or sentence MD5).
1568316131,2eeb9ff392036e4023983756a1565be9,MultiSlider,30,0,EveryNot.All.HowManyBias,8,A glamorous cocktail event was being held in the Hilton hotel. When guests arrived%2C the receptionist noted down the number of people who correctly followed the dress code. The receptionist said%2C "Every guest wasn't dressed properly."
1568316131,2eeb9ff392036e4023983756a1565be9,MultiSlider,30,0,EveryNot.All.HowManyBias,8,How well do the following sentences describe what the speaker meant?
# The lines below this comment are in groups of 2.
# The formats of the lines in each of these groups are as follows:
#
# Line 1:
#     Col. 1: Time results were received.
#     Col. 2: MD5 hash of participant's IP address.
#     Col. 3: Controller name.
#     Col. 4: Item number.
#     Col. 5: Element number.
#     Col. 6: Type.
#     Col. 7: Group.
#     Col. 8: html.
#     Col. 9: startValue.
#     Col. 10: endValue.
#     Col. 11: value.
# Line 2:
#     Col. 1: Time results were received.
#     Col. 2: MD5 hash of participant's IP address.
#     Col. 3: Controller name.
#     Col. 4: Item number.
#     Col. 5: Element number.
#     Col. 6: Type.
#     Col. 7: Group.
#     Col. 8: Field name.
#     Col. 9: Field value.
1568316131,2eeb9ff392036e4023983756a1565be9,MultiSlider,30,0,EveryNot.All.HowManyBias,8,<b> Some but not all </b> of the guests were dressed properly,0.00,100.00,86.50
1568316131,2eeb9ff392036e4023983756a1565be9,MultiSlider,30,0,EveryNot.All.HowManyBias,8,_REACTION_TIME_,18025
# The lines below this comment are in groups of 2.
# The formats of the lines in each of these groups are as follows:
#
# Line 1:
#     Col. 1: Time results were received.
#     Col. 2: MD5 hash of participant's IP address.
#     Col. 3: Controller name.
#     Col. 4: Item number.
#     Col. 5: Element number.
#     Col. 6: Type.
#     Col. 7: Group.
#     Col. 8: Question (NULL if none).
#     Col. 9: Answer.
#     Col. 10: Whether or not answer was correct (NULL if N/A).
#     Col. 11: Time taken to answer.
# Line 2:
#     Col. 1: Time results were received.
#     Col. 2: MD5 hash of participant's IP address.
#     Col. 3: Controller name.
#     Col. 4: Item number.
#     Col. 5: Element number.
#     Col. 6: Type.
#     Col. 7: Group.
#     Col. 8: Sentence (or sentence MD5).
1568316131,2eeb9ff392036e4023983756a1565be9,Question,30,1,EveryNot.All.HowManyBias,8,What was the receptionist trying to do?,Make note of the number of properly dressed people,1,5487
1568316131,2eeb9ff392036e4023983756a1565be9,MultiSlider,20,0,EveryNot.All.NoneBias,4,The couple has been planning their wedding for next month. The bride asks her future husband if he has started writing the invitations. The groom says%2C "Every wedding invitation hasn't been written."
# The lines below this comment are in groups of 2.
# The formats of the lines in each of these groups are as follows:
#
# Line 1:
#     Col. 1: Time results were received.
#     Col. 2: MD5 hash of participant's IP address.
#     Col. 3: Controller name.
#     Col. 4: Item number.
#     Col. 5: Element number.
#     Col. 6: Type.
#     Col. 7: Group.
#     Col. 8: Sentence (or sentence MD5).
# Line 2:
#     Col. 1: Time results were received.
#     Col. 2: MD5 hash of participant's IP address.
#     Col. 3: Controller name.
#     Col. 4: Item number.
#     Col. 5: Element number.
#     Col. 6: Type.
#     Col. 7: Group.
#     Col. 8: html1.
#     Col. 9: startValue.
#     Col. 10: endValue.
#     Col. 11: value.
1568316131,2eeb9ff392036e4023983756a1565be9,MultiSlider,20,0,EveryNot.All.NoneBias,4,How well do the following sentences describe what the speaker meant?
1568316131,2eeb9ff392036e4023983756a1565be9,MultiSlider,20,0,EveryNot.All.NoneBias,4, The couple hasn't written <b> any </b>of the wedding invitations,0.00,100.00,93.17
# The lines below this comment are in groups of 2.
# The formats of the lines in each of these groups are as follows:
#
# Line 1:
#     Col. 1: Time results were received.
#     Col. 2: MD5 hash of participant's IP address.
#     Col. 3: Controller name.
#     Col. 4: Item number.
#     Col. 5: Element number.
#     Col. 6: Type.
#     Col. 7: Group.
#     Col. 8: Field name.
#     Col. 9: Field value.
# Line 2:
#     Col. 1: Time results were received.
#     Col. 2: MD5 hash of participant's IP address.
#     Col. 3: Controller name.
#     Col. 4: Item number.
#     Col. 5: Element number.
#     Col. 6: Type.
#     Col. 7: Group.
#     Col. 8: Question (NULL if none).
#     Col. 9: Answer.
#     Col. 10: Whether or not answer was correct (NULL if N/A).
#     Col. 11: Time taken to answer.
1568316131,2eeb9ff392036e4023983756a1565be9,MultiSlider,20,0,EveryNot.All.NoneBias,4,_REACTION_TIME_,18195
1568316131,2eeb9ff392036e4023983756a1565be9,Question,20,1,EveryNot.All.NoneBias,4,What does the bride want to know?,Whether the groom has started writing the invitations,1,4055
# Columns below this comment are as follows:
# 1. Time results were received.
# 2. MD5 hash of participant's IP address.
# 3. Controller name.
# 4. Item number.
# 5. Element number.
# 6. Type.
# 7. Group.
# 8. Sentence (or sentence MD5).
1568316131,2eeb9ff392036e4023983756a1565be9,MultiSlider,12,0,EveryNot.All.HowManyBias,2,Erin is a vet. During her last trip%2C she encountered six deer in critical condition%2C and she tried to keep as many alive as possible. Upon return%2C Erin said%2C "Every deer didn't survive."
1568316131,2eeb9ff392036e4023983756a1565be9,MultiSlider,12,0,EveryNot.All.HowManyBias,2,How well do the following sentences describe what the speaker meant?
# The lines below this comment are in groups of 2.
# The formats of the lines in each of these groups are as follows:
#
# Line 1:
#     Col. 1: Time results were received.
#     Col. 2: MD5 hash of participant's IP address.
#     Col. 3: Controller name.
#     Col. 4: Item number.
#     Col. 5: Element number.
#     Col. 6: Type.
#     Col. 7: Group.
#     Col. 8: Field name.
#     Col. 9: Field value.
# Line 2:
#     Col. 1: Time results were received.
#     Col. 2: MD5 hash of participant's IP address.
#     Col. 3: Controller name.
#     Col. 4: Item number.
#     Col. 5: Element number.
#     Col. 6: Type.
#     Col. 7: Group.
#     Col. 8: Sentence (or sentence MD5).
1568316131,2eeb9ff392036e4023983756a1565be9,MultiSlider,12,0,EveryNot.All.HowManyBias,2,_REACTION_TIME_,14315
1568316131,2eeb9ff392036e4023983756a1565be9,MultiSlider,74,0,EveryNot.None.NoneBias,22,The unsuccessful broker has made some risky investments in the stock market. He nervously stared at the monitor%2C because his house may be foreclosed if none of the investments pay off. He groaned%2C "Every investment didn't pay off."
# The lines below this comment are in groups of 2.
# The formats of the lines in each of these groups are as follows:
#
# Line 1:
#     Col. 1: Time results were received.
#     Col. 2: MD5 hash of participant's IP address.
#     Col. 3: Controller name.
#     Col. 4: Item number.
#     Col. 5: Element number.
#     Col. 6: Type.
#     Col. 7: Group.
#     Col. 8: Sentence (or sentence MD5).
# Line 2:
#     Col. 1: Time results were received.
#     Col. 2: MD5 hash of participant's IP address.
#     Col. 3: Controller name.
#     Col. 4: Item number.
#     Col. 5: Element number.
#     Col. 6: Type.
#     Col. 7: Group.
#     Col. 8: html1.
#     Col. 9: startValue.
#     Col. 10: endValue.
#     Col. 11: value.
1568316131,2eeb9ff392036e4023983756a1565be9,MultiSlider,74,0,EveryNot.None.NoneBias,22,How well do the following sentences describe what the speaker meant?
1568316131,2eeb9ff392036e4023983756a1565be9,MultiSlider,74,0,EveryNot.None.NoneBias,22,<b> None </b> of the investments paid off,0.00,100.00,77.83
# The lines below this comment are in groups of 2.
# The formats of the lines in each of these groups are as follows:
#
# Line 1:
#     Col. 1: Time results were received.
#     Col. 2: MD5 hash of participant's IP address.
#     Col. 3: Controller name.
#     Col. 4: Item number.
#     Col. 5: Element number.
#     Col. 6: Type.
#     Col. 7: Group.
#     Col. 8: html.
#     Col. 9: startValue.
#     Col. 10: endValue.
#     Col. 11: value.
# Line 2:
#     Col. 1: Time results were received.
#     Col. 2: MD5 hash of participant's IP address.
#     Col. 3: Controller name.
#     Col. 4: Item number.
#     Col. 5: Element number.
#     Col. 6: Type.
#     Col. 7: Group.
#     Col. 8: Field name.
#     Col. 9: Field value.
1568316131,2eeb9ff392036e4023983756a1565be9,MultiSlider,74,0,EveryNot.None.NoneBias,22,<b> All </b> of the investments paid off,0.00,100.00,5.50
1568316131,2eeb9ff392036e4023983756a1565be9,MultiSlider,74,0,EveryNot.None.NoneBias,22,_REACTION_TIME_,20382
# Columns below this comment are as follows:
# 1. Time results were received.
# 2. MD5 hash of participant's IP address.
# 3. Controller name.
# 4. Item number.
# 5. Element number.
# 6. Type.
# 7. Group.
# 8. Sentence (or sentence MD5).
1568316131,2eeb9ff392036e4023983756a1565be9,MultiSlider,11,0,EveryNot.All.NoneBias,1,The whole kindergarten was going on a field trip. The teacher jumped on the bus to see if any children had got on the bus. The teacher said%2C "Every kindergartner didn't get on the bus."
1568316131,2eeb9ff392036e4023983756a1565be9,MultiSlider,11,0,EveryNot.All.NoneBias,1,How well do the following sentences describe what the speaker meant?
# The lines below this comment are in groups of 2.
# The formats of the lines in each of these groups are as follows:
#
# Line 1:
#     Col. 1: Time results were received.
#     Col. 2: MD5 hash of participant's IP address.
#     Col. 3: Controller name.
#     Col. 4: Item number.
#     Col. 5: Element number.
#     Col. 6: Type.
#     Col. 7: Group.
#     Col. 8: html1.
#     Col. 9: startValue.
#     Col. 10: endValue.
#     Col. 11: value.
# Line 2:
#     Col. 1: Time results were received.
#     Col. 2: MD5 hash of participant's IP address.
#     Col. 3: Controller name.
#     Col. 4: Item number.
#     Col. 5: Element number.
#     Col. 6: Type.
#     Col. 7: Group.
#     Col. 8: html2.
#     Col. 9: startValue.
#     Col. 10: endValue.
#     Col. 11: value.
1568316131,2eeb9ff392036e4023983756a1565be9,MultiSlider,11,0,EveryNot.All.NoneBias,1,<b> None </b> of the kindergartners got on the bus,0.00,100.00,14.50
1568316131,2eeb9ff392036e4023983756a1565be9,MultiSlider,11,0,EveryNot.All.NoneBias,1,<b> Some but not all </b> of the kindergartners got on the bus,0.00,100.00,79.83
# The lines below this comment are in groups of 2.
# The formats of the lines in each of these groups are as follows:
#
# Line 1:
#     Col. 1: Time results were received.
#     Col. 2: MD5 hash of participant's IP address.
#     Col. 3: Controller name.
#     Col. 4: Item number.
#     Col. 5: Element number.
#     Col. 6: Type.
#     Col. 7: Group.
#     Col. 8: Field name.
#     Col. 9: Field value.
# Line 2:
#     Col. 1: Time results were received.
#     Col. 2: MD5 hash of participant's IP address.
#     Col. 3: Controller name.
#     Col. 4: Item number.
#     Col. 5: Element number.
#     Col. 6: Type.
#     Col. 7: Group.
#     Col. 8: Question (NULL if none).
#     Col. 9: Answer.
#     Col. 10: Whether or not answer was correct (NULL if N/A).
#     Col. 11: Time taken to answer.
1568316131,2eeb9ff392036e4023983756a1565be9,MultiSlider,11,0,EveryNot.All.NoneBias,1,_REACTION_TIME_,20546
1568316131,2eeb9ff392036e4023983756a1565be9,Question,11,1,EveryNot.All.NoneBias,1,Where did the kindergartners go?,On a fieldtrip,1,3610
# Columns below this comment are as follows:
# 1. Time results were received.
# 2. MD5 hash of participant's IP address.
# 3. Controller name.
# 4. Item number.
# 5. Element number.
# 6. Type.
# 7. Group.
# 8. Sentence (or sentence MD5).
1568316131,2eeb9ff392036e4023983756a1565be9,MultiSlider,34,0,EveryNot.Some.AllBias,9,The teacher has just finished correcting exams. The dean wants an update because the school will receive an increase in federal funds if all of the students passed. The teacher tells the dean: "Every student didn't pass."
1568316131,2eeb9ff392036e4023983756a1565be9,MultiSlider,34,0,EveryNot.Some.AllBias,9,How well do the following sentences describe what the speaker meant?
# The lines below this comment are in groups of 2.
# The formats of the lines in each of these groups are as follows:
#
# Line 1:
#     Col. 1: Time results were received.
#     Col. 2: MD5 hash of participant's IP address.
#     Col. 3: Controller name.
#     Col. 4: Item number.
#     Col. 5: Element number.
#     Col. 6: Type.
#     Col. 7: Group.
#     Col. 8: html1.
#     Col. 9: startValue.
#     Col. 10: endValue.
#     Col. 11: value.
# Line 2:
#     Col. 1: Time results were received.
#     Col. 2: MD5 hash of participant's IP address.
#     Col. 3: Controller name.
#     Col. 4: Item number.
#     Col. 5: Element number.
#     Col. 6: Type.
#     Col. 7: Group.
#     Col. 8: Field name.
#     Col. 9: Field value.
1568316131,2eeb9ff392036e4023983756a1565be9,MultiSlider,34,0,EveryNot.Some.AllBias,9,<b> Some but not all </b> of the students passed the exam,0.00,100.00,83.83
1568316131,2eeb9ff392036e4023983756a1565be9,MultiSlider,34,0,EveryNot.Some.AllBias,9,_REACTION_TIME_,17708
# The lines below this comment are in groups of 2.
# The formats of the lines in each of these groups are as follows:
#
# Line 1:
#     Col. 1: Time results were received.
#     Col. 2: MD5 hash of participant's IP address.
#     Col. 3: Controller name.
#     Col. 4: Item number.
#     Col. 5: Element number.
#     Col. 6: Type.
#     Col. 7: Group.
#     Col. 8: Question (NULL if none).
#     Col. 9: Answer.
#     Col. 10: Whether or not answer was correct (NULL if N/A).
#     Col. 11: Time taken to answer.
# Line 2:
#     Col. 1: Time results were received.
#     Col. 2: MD5 hash of participant's IP address.
#     Col. 3: Controller name.
#     Col. 4: Item number.
#     Col. 5: Element number.
#     Col. 6: Type.
#     Col. 7: Group.
#     Col. 8: Sentence (or sentence MD5).
1568316131,2eeb9ff392036e4023983756a1565be9,Question,34,1,EveryNot.Some.AllBias,9,What type of funds is the dean worrying about?,Federal funds,1,2271
1568316131,2eeb9ff392036e4023983756a1565be9,MultiSlider,56,0,EveryNot.Some.NoneBias,16,A tech start-up is facing some financial issues. During an HR meeting%2C the board debated whether they had to downsize. The HR announced%2C "Every employee isn't going to be laid off."
# The lines below this comment are in groups of 2.
# The formats of the lines in each of these groups are as follows:
#
# Line 1:
#     Col. 1: Time results were received.
#     Col. 2: MD5 hash of participant's IP address.
#     Col. 3: Controller name.
#     Col. 4: Item number.
#     Col. 5: Element number.
#     Col. 6: Type.
#     Col. 7: Group.
#     Col. 8: Sentence (or sentence MD5).
# Line 2:
#     Col. 1: Time results were received.
#     Col. 2: MD5 hash of participant's IP address.
#     Col. 3: Controller name.
#     Col. 4: Item number.
#     Col. 5: Element number.
#     Col. 6: Type.
#     Col. 7: Group.
#     Col. 8: html.
#     Col. 9: startValue.
#     Col. 10: endValue.
#     Col. 11: value.
1568316131,2eeb9ff392036e4023983756a1565be9,MultiSlider,56,0,EveryNot.Some.NoneBias,16,How well do the following sentences describe what the speaker meant?
1568316131,2eeb9ff392036e4023983756a1565be9,MultiSlider,56,0,EveryNot.Some.NoneBias,16,<b> All </b> of the employees will be fired,0.00,100.00,12.83
# The lines below this comment are in groups of 2.
# The formats of the lines in each of these groups are as follows:
#
# Line 1:
#     Col. 1: Time results were received.
#     Col. 2: MD5 hash of participant's IP address.
#     Col. 3: Controller name.
#     Col. 4: Item number.
#     Col. 5: Element number.
#     Col. 6: Type.
#     Col. 7: Group.
#     Col. 8: Field name.
#     Col. 9: Field value.
# Line 2:
#     Col. 1: Time results were received.
#     Col. 2: MD5 hash of participant's IP address.
#     Col. 3: Controller name.
#     Col. 4: Item number.
#     Col. 5: Element number.
#     Col. 6: Type.
#     Col. 7: Group.
#     Col. 8: Question (NULL if none).
#     Col. 9: Answer.
#     Col. 10: Whether or not answer was correct (NULL if N/A).
#     Col. 11: Time taken to answer.
1568316131,2eeb9ff392036e4023983756a1565be9,MultiSlider,56,0,EveryNot.Some.NoneBias,16,_REACTION_TIME_,15951
1568316131,2eeb9ff392036e4023983756a1565be9,Question,56,1,EveryNot.Some.NoneBias,16,What did the board discuss during the meeting?,Whether everyone will be laid off,0,3467
# Columns below this comment are as follows:
# 1. Time results were received.
# 2. MD5 hash of participant's IP address.
# 3. Controller name.
# 4. Item number.
# 5. Element number.
# 6. Type.
# 7. Group.
# 8. Sentence (or sentence MD5).
1568316131,2eeb9ff392036e4023983756a1565be9,MultiSlider,47,0,EveryNot.Some.NoneBias,13,Lily inherited her mom's huge book collection. When her boyfriend visited%2C he wondered if Lily had cataloged anything from this collection. Lily added%2C "Every book hasn't been cataloged."
1568316131,2eeb9ff392036e4023983756a1565be9,MultiSlider,47,0,EveryNot.Some.NoneBias,13,How well do the following sentences describe what the speaker meant?
# The lines below this comment are in groups of 2.
# The formats of the lines in each of these groups are as follows:
#
# Line 1:
#     Col. 1: Time results were received.
#     Col. 2: MD5 hash of participant's IP address.
#     Col. 3: Controller name.
#     Col. 4: Item number.
#     Col. 5: Element number.
#     Col. 6: Type.
#     Col. 7: Group.
#     Col. 8: html1.
#     Col. 9: startValue.
#     Col. 10: endValue.
#     Col. 11: value.
# Line 2:
#     Col. 1: Time results were received.
#     Col. 2: MD5 hash of participant's IP address.
#     Col. 3: Controller name.
#     Col. 4: Item number.
#     Col. 5: Element number.
#     Col. 6: Type.
#     Col. 7: Group.
#     Col. 8: html2.
#     Col. 9: startValue.
#     Col. 10: endValue.
#     Col. 11: value.
1568316131,2eeb9ff392036e4023983756a1565be9,MultiSlider,47,0,EveryNot.Some.NoneBias,13,<b> None </b> of the books have been cataloged,0.00,100.00,22.17
1568316131,2eeb9ff392036e4023983756a1565be9,MultiSlider,47,0,EveryNot.Some.NoneBias,13,<b> Some but not all </b> of the books have been cataloged,0.00,100.00,79.83
# The lines below this comment are in groups of 2.
# The formats of the lines in each of these groups are as follows:
#
# Line 1:
#     Col. 1: Time results were received.
#     Col. 2: MD5 hash of participant's IP address.
#     Col. 3: Controller name.
#     Col. 4: Item number.
#     Col. 5: Element number.
#     Col. 6: Type.
#     Col. 7: Group.
#     Col. 8: html.
#     Col. 9: startValue.
#     Col. 10: endValue.
#     Col. 11: value.
# Line 2:
#     Col. 1: Time results were received.
#     Col. 2: MD5 hash of participant's IP address.
#     Col. 3: Controller name.
#     Col. 4: Item number.
#     Col. 5: Element number.
#     Col. 6: Type.
#     Col. 7: Group.
#     Col. 8: Field name.
#     Col. 9: Field value.
1568316131,2eeb9ff392036e4023983756a1565be9,MultiSlider,47,0,EveryNot.Some.NoneBias,13,<b> All </b> of the books have been cataloged,0.00,100.00,17.83
1568316131,2eeb9ff392036e4023983756a1565be9,MultiSlider,47,0,EveryNot.Some.NoneBias,13,_REACTION_TIME_,18356
# The lines below this comment are in groups of 2.
# The formats of the lines in each of these groups are as follows:
#
# Line 1:
#     Col. 1: Time results were received.
#     Col. 2: MD5 hash of participant's IP address.
#     Col. 3: Controller name.
#     Col. 4: Item number.
#     Col. 5: Element number.
#     Col. 6: Type.
#     Col. 7: Group.
#     Col. 8: Question (NULL if none).
#     Col. 9: Answer.
#     Col. 10: Whether or not answer was correct (NULL if N/A).
#     Col. 11: Time taken to answer.
# Line 2:
#     Col. 1: Time results were received.
#     Col. 2: MD5 hash of participant's IP address.
#     Col. 3: Controller name.
#     Col. 4: Item number.
#     Col. 5: Element number.
#     Col. 6: Type.
#     Col. 7: Group.
#     Col. 8: Sentence (or sentence MD5).
1568316131,2eeb9ff392036e4023983756a1565be9,Question,47,1,EveryNot.Some.NoneBias,13,Who did Lily get the book collection from?,Her mom,1,2519
1568316131,2eeb9ff392036e4023983756a1565be9,MultiSlider,21,0,EveryNot.All.HowManyBias,5,Paula is a dedicated store assistant. A week ago%2C five boxes of new products had arrived at the store. Her manager asked how many of the boxes Paula had opened. Paula answered%2C "Every box hasn't been opened."
# The lines below this comment are in groups of 2.
# The formats of the lines in each of these groups are as follows:
#
# Line 1:
#     Col. 1: Time results were received.
#     Col. 2: MD5 hash of participant's IP address.
#     Col. 3: Controller name.
#     Col. 4: Item number.
#     Col. 5: Element number.
#     Col. 6: Type.
#     Col. 7: Group.
#     Col. 8: Sentence (or sentence MD5).
# Line 2:
#     Col. 1: Time results were received.
#     Col. 2: MD5 hash of participant's IP address.
#     Col. 3: Controller name.
#     Col. 4: Item number.
#     Col. 5: Element number.
#     Col. 6: Type.
#     Col. 7: Group.
#     Col. 8: Field name.
#     Col. 9: Field value.
1568316131,2eeb9ff392036e4023983756a1565be9,MultiSlider,21,0,EveryNot.All.HowManyBias,5,How well do the following sentences describe what the speaker meant?
1568316131,2eeb9ff392036e4023983756a1565be9,MultiSlider,21,0,EveryNot.All.HowManyBias,5,_REACTION_TIME_,13895
# The lines below this comment are in groups of 2.
# The formats of the lines in each of these groups are as follows:
#
# Line 1:
#     Col. 1: Time results were received.
#     Col. 2: MD5 hash of participant's IP address.
#     Col. 3: Controller name.
#     Col. 4: Item number.
#     Col. 5: Element number.
#     Col. 6: Type.
#     Col. 7: Group.
#     Col. 8: Question (NULL if none).
#     Col. 9: Answer.
#     Col. 10: Whether or not answer was correct (NULL if N/A).
#     Col. 11: Time taken to answer.
# Line 2:
#     Col. 1: Time results were received.
#     Col. 2: MD5 hash of participant's IP address.
#     Col. 3: Controller name.
#     Col. 4: Item number.
#     Col. 5: Element number.
#     Col. 6: Type.
#     Col. 7: Group.
#     Col. 8: Sentence (or sentence MD5).
1568316131,2eeb9ff392036e4023983756a1565be9,Question,21,1,EveryNot.All.HowManyBias,5,When did the new products arrive?,A week ago,1,2459
1568316131,2eeb9ff392036e4023983756a1565be9,MultiSlider,16,0,EveryNot.All.AllBias,3,Rachel is an industrious teaching assistant who has to grade student essays. After a week%2C her boss asks if she is ready to enter the grades into the school system. She told her mentor%2C "Every essay hasn't been graded."
# The lines below this comment are in groups of 2.
# The formats of the lines in each of these groups are as follows:
#
# Line 1:
#     Col. 1: Time results were received.
#     Col. 2: MD5 hash of participant's IP address.
#     Col. 3: Controller name.
#     Col. 4: Item number.
#     Col. 5: Element number.
#     Col. 6: Type.
#     Col. 7: Group.
#     Col. 8: Sentence (or sentence MD5).
# Line 2:
#     Col. 1: Time results were received.
#     Col. 2: MD5 hash of participant's IP address.
#     Col. 3: Controller name.
#     Col. 4: Item number.
#     Col. 5: Element number.
#     Col. 6: Type.
#     Col. 7: Group.
#     Col. 8: html1.
#     Col. 9: startValue.
#     Col. 10: endValue.
#     Col. 11: value.
1568316131,2eeb9ff392036e4023983756a1565be9,MultiSlider,16,0,EveryNot.All.AllBias,3,How well do the following sentences describe what the speaker meant?
1568316131,2eeb9ff392036e4023983756a1565be9,MultiSlider,16,0,EveryNot.All.AllBias,3, Rachel graded <b> some but not all </b>of the student essays,0.00,100.00,74.50
# The lines below this comment are in groups of 2.
# The formats of the lines in each of these groups are as follows:
#
# Line 1:
#     Col. 1: Time results were received.
#     Col. 2: MD5 hash of participant's IP address.
#     Col. 3: Controller name.
#     Col. 4: Item number.
#     Col. 5: Element number.
#     Col. 6: Type.
#     Col. 7: Group.
#     Col. 8: html2.
#     Col. 9: startValue.
#     Col. 10: endValue.
#     Col. 11: value.
# Line 2:
#     Col. 1: Time results were received.
#     Col. 2: MD5 hash of participant's IP address.
#     Col. 3: Controller name.
#     Col. 4: Item number.
#     Col. 5: Element number.
#     Col. 6: Type.
#     Col. 7: Group.
#     Col. 8: html.
#     Col. 9: startValue.
#     Col. 10: endValue.
#     Col. 11: value.
1568316131,2eeb9ff392036e4023983756a1565be9,MultiSlider,16,0,EveryNot.All.AllBias,3, Rachel graded <b> all </b>of the student essays,0.00,100.00,21.50
1568316131,2eeb9ff392036e4023983756a1565be9,MultiSlider,16,0,EveryNot.All.AllBias,3, Rachel didn't grade <b> any </b>of the student essays,0.00,100.00,12.17
# The lines below this comment are in groups of 2.
# The formats of the lines in each of these groups are as follows:
#
# Line 1:
#     Col. 1: Time results were received.
#     Col. 2: MD5 hash of participant's IP address.
#     Col. 3: Controller name.
#     Col. 4: Item number.
#     Col. 5: Element number.
#     Col. 6: Type.
#     Col. 7: Group.
#     Col. 8: Field name.
#     Col. 9: Field value.
# Line 2:
#     Col. 1: Time results were received.
#     Col. 2: MD5 hash of participant's IP address.
#     Col. 3: Controller name.
#     Col. 4: Item number.
#     Col. 5: Element number.
#     Col. 6: Type.
#     Col. 7: Group.
#     Col. 8: Question (NULL if none).
#     Col. 9: Answer.
#     Col. 10: Whether or not answer was correct (NULL if N/A).
#     Col. 11: Time taken to answer.
1568316131,2eeb9ff392036e4023983756a1565be9,MultiSlider,16,0,EveryNot.All.AllBias,3,_REACTION_TIME_,21838
1568316131,2eeb9ff392036e4023983756a1565be9,Question,16,1,EveryNot.All.AllBias,3,What is Rachel's job?,Teaching assistant,1,2721
# Columns below this comment are as follows:
# 1. Time results were received.
# 2. MD5 hash of participant's IP address.
# 3. Controller name.
# 4. Item number.
# 5. Element number.
# 6. Type.
# 7. Group.
# 8. Sentence (or sentence MD5).
1568316131,2eeb9ff392036e4023983756a1565be9,MultiSlider,65,0,EveryNot.None.NoneBias,19,Bill is an average runner who tried to break five Guinness records of running. At the day of the challenge%2C he doubted himself and wondered if he could even finish a single challenge. The TV reporter announced%2C "Every record wasn't broken."
1568316131,2eeb9ff392036e4023983756a1565be9,MultiSlider,65,0,EveryNot.None.NoneBias,19,How well do the following sentences describe what the speaker meant?
# The lines below this comment are in groups of 2.
# The formats of the lines in each of these groups are as follows:
#
# Line 1:
#     Col. 1: Time results were received.
#     Col. 2: MD5 hash of participant's IP address.
#     Col. 3: Controller name.
#     Col. 4: Item number.
#     Col. 5: Element number.
#     Col. 6: Type.
#     Col. 7: Group.
#     Col. 8: html1.
#     Col. 9: startValue.
#     Col. 10: endValue.
#     Col. 11: value.
# Line 2:
#     Col. 1: Time results were received.
#     Col. 2: MD5 hash of participant's IP address.
#     Col. 3: Controller name.
#     Col. 4: Item number.
#     Col. 5: Element number.
#     Col. 6: Type.
#     Col. 7: Group.
#     Col. 8: html2.
#     Col. 9: startValue.
#     Col. 10: endValue.
#     Col. 11: value.
1568316131,2eeb9ff392036e4023983756a1565be9,MultiSlider,65,0,EveryNot.None.NoneBias,19,Bill didn't break<b> any </b>of the records in the end,0.00,100.00,91.50
1568316131,2eeb9ff392036e4023983756a1565be9,MultiSlider,65,0,EveryNot.None.NoneBias,19,Bill broke<b> some but not all </b>of the records in the end,0.00,100.00,5.17
# The lines below this comment are in groups of 2.
# The formats of the lines in each of these groups are as follows:
#
# Line 1:
#     Col. 1: Time results were received.
#     Col. 2: MD5 hash of participant's IP address.
#     Col. 3: Controller name.
#     Col. 4: Item number.
#     Col. 5: Element number.
#     Col. 6: Type.
#     Col. 7: Group.
#     Col. 8: html.
#     Col. 9: startValue.
#     Col. 10: endValue.
#     Col. 11: value.
# Line 2:
#     Col. 1: Time results were received.
#     Col. 2: MD5 hash of participant's IP address.
#     Col. 3: Controller name.
#     Col. 4: Item number.
#     Col. 5: Element number.
#     Col. 6: Type.
#     Col. 7: Group.
#     Col. 8: Field name.
#     Col. 9: Field value.
1568316131,2eeb9ff392036e4023983756a1565be9,MultiSlider,65,0,EveryNot.None.NoneBias,19,Bill broke<b> all </b>of the records in the end,0.00,100.00,6.17
1568316131,2eeb9ff392036e4023983756a1565be9,MultiSlider,65,0,EveryNot.None.NoneBias,19,_REACTION_TIME_,23347
# The lines below this comment are in groups of 2.
# The formats of the lines in each of these groups are as follows:
#
# Line 1:
#     Col. 1: Time results were received.
#     Col. 2: MD5 hash of participant's IP address.
#     Col. 3: Controller name.
#     Col. 4: Item number.
#     Col. 5: Element number.
#     Col. 6: Type.
#     Col. 7: Group.
#     Col. 8: Question (NULL if none).
#     Col. 9: Answer.
#     Col. 10: Whether or not answer was correct (NULL if N/A).
#     Col. 11: Time taken to answer.
# Line 2:
#     Col. 1: Time results were received.
#     Col. 2: MD5 hash of participant's IP address.
#     Col. 3: Controller name.
#     Col. 4: Item number.
#     Col. 5: Element number.
#     Col. 6: Type.
#     Col. 7: Group.
#     Col. 8: Sentence (or sentence MD5).
1568316131,2eeb9ff392036e4023983756a1565be9,Question,65,1,EveryNot.None.NoneBias,19,What kind of sports does Bill do?,Running,1,2137
1568316131,2eeb9ff392036e4023983756a1565be9,MultiSlider,39,0,EveryNot.Some.HowManyBias,11,The local community organized a flea market last weekend. The sellers  all tried very hard to close as many sales as they could. They concluded%2C "Every sale wasn't closed."
# The lines below this comment are in groups of 2.
# The formats of the lines in each of these groups are as follows:
#
# Line 1:
#     Col. 1: Time results were received.
#     Col. 2: MD5 hash of participant's IP address.
#     Col. 3: Controller name.
#     Col. 4: Item number.
#     Col. 5: Element number.
#     Col. 6: Type.
#     Col. 7: Group.
#     Col. 8: Sentence (or sentence MD5).
# Line 2:
#     Col. 1: Time results were received.
#     Col. 2: MD5 hash of participant's IP address.
#     Col. 3: Controller name.
#     Col. 4: Item number.
#     Col. 5: Element number.
#     Col. 6: Type.
#     Col. 7: Group.
#     Col. 8: html2.
#     Col. 9: startValue.
#     Col. 10: endValue.
#     Col. 11: value.
1568316131,2eeb9ff392036e4023983756a1565be9,MultiSlider,39,0,EveryNot.Some.HowManyBias,11,How well do the following sentences describe what the speaker meant?
1568316131,2eeb9ff392036e4023983756a1565be9,MultiSlider,39,0,EveryNot.Some.HowManyBias,11,The sellers didn't close <b> any </b>of the sales,0.00,100.00,13.83
# The lines below this comment are in groups of 2.
# The formats of the lines in each of these groups are as follows:
#
# Line 1:
#     Col. 1: Time results were received.
#     Col. 2: MD5 hash of participant's IP address.
#     Col. 3: Controller name.
#     Col. 4: Item number.
#     Col. 5: Element number.
#     Col. 6: Type.
#     Col. 7: Group.
#     Col. 8: Field name.
#     Col. 9: Field value.
# Line 2:
#     Col. 1: Time results were received.
#     Col. 2: MD5 hash of participant's IP address.
#     Col. 3: Controller name.
#     Col. 4: Item number.
#     Col. 5: Element number.
#     Col. 6: Type.
#     Col. 7: Group.
#     Col. 8: Question (NULL if none).
#     Col. 9: Answer.
#     Col. 10: Whether or not answer was correct (NULL if N/A).
#     Col. 11: Time taken to answer.
1568316131,2eeb9ff392036e4023983756a1565be9,MultiSlider,39,0,EveryNot.Some.HowManyBias,11,_REACTION_TIME_,17370
1568316131,2eeb9ff392036e4023983756a1565be9,Question,39,1,EveryNot.Some.HowManyBias,11,What was organized last weekend?,A flea market,1,1884
# Columns below this comment are as follows:
# 1. Time results were received.
# 2. MD5 hash of participant's IP address.
# 3. Controller name.
# 4. Item number.
# 5. Element number.
# 6. Type.
# 7. Group.
# 8. Sentence (or sentence MD5).
1568316131,2eeb9ff392036e4023983756a1565be9,MultiSlider,38,0,EveryNot.Some.NoneBias,10,The city council organized a spelling bee competition. As the competition began%2C the parents wondered if their kids would be able to get anything correct. The host announced%2C "Every answer wasn't correct."
1568316131,2eeb9ff392036e4023983756a1565be9,MultiSlider,38,0,EveryNot.Some.NoneBias,10,How well do the following sentences describe what the speaker meant?
# The lines below this comment are in groups of 2.
# The formats of the lines in each of these groups are as follows:
#
# Line 1:
#     Col. 1: Time results were received.
#     Col. 2: MD5 hash of participant's IP address.
#     Col. 3: Controller name.
#     Col. 4: Item number.
#     Col. 5: Element number.
#     Col. 6: Type.
#     Col. 7: Group.
#     Col. 8: html2.
#     Col. 9: startValue.
#     Col. 10: endValue.
#     Col. 11: value.
# Line 2:
#     Col. 1: Time results were received.
#     Col. 2: MD5 hash of participant's IP address.
#     Col. 3: Controller name.
#     Col. 4: Item number.
#     Col. 5: Element number.
#     Col. 6: Type.
#     Col. 7: Group.
#     Col. 8: html.
#     Col. 9: startValue.
#     Col. 10: endValue.
#     Col. 11: value.
1568316131,2eeb9ff392036e4023983756a1565be9,MultiSlider,38,0,EveryNot.Some.NoneBias,10,The kids answered <b> some but not all </b>of the questions correctly,0.00,100.00,83.17
1568316131,2eeb9ff392036e4023983756a1565be9,MultiSlider,38,0,EveryNot.Some.NoneBias,10,The kids answered <b> all </b>of the questions correctly,0.00,100.00,22.17
# Columns below this comment are as follows:
# 1. Time results were received.
# 2. MD5 hash of participant's IP address.
# 3. Controller name.
# 4. Item number.
# 5. Element number.
# 6. Type.
# 7. Group.
# 8. Field name.
# 9. Field value.
1568316131,2eeb9ff392036e4023983756a1565be9,MultiSlider,38,0,EveryNot.Some.NoneBias,10,_REACTION_TIME_,20119
1568316131,2eeb9ff392036e4023983756a1565be9,Form,8,0,end_experiment,NULL,_REACTION_TIME_,4145
#
# Results on Thursday September 12 2019 19:24:11 UTC.
# USER AGENT: Mozilla/5.0 (Windows NT 10.0; Win64; x64) AppleWebKit/537.36 (KHTML, like Gecko) Chrome/76.0.3809.132 Safari/537.36
# Design number was non-random = 0
#
# Columns below this comment are as follows:
# 1. Time results were received.
# 2. MD5 hash of participant's IP address.
# 3. Controller name.
# 4. Item number.
# 5. Element number.
# 6. Type.
# 7. Group.
# 8. Field name.
# 9. Field value.
1568316251,87f2582b506c4a859cfd1c20df91d9aa,Form,7,0,consent,NULL,consent,yes
1568316251,87f2582b506c4a859cfd1c20df91d9aa,Form,7,0,consent,NULL,_REACTION_TIME_,6514
1568316251,87f2582b506c4a859cfd1c20df91d9aa,Form,1,0,intro,NULL,age,37
1568316251,87f2582b506c4a859cfd1c20df91d9aa,Form,1,0,intro,NULL,natlang,English
1568316251,87f2582b506c4a859cfd1c20df91d9aa,Form,1,0,intro,NULL,otherlang,no
1568316251,87f2582b506c4a859cfd1c20df91d9aa,Form,1,0,intro,NULL,Prolific,5cefc93c19d55e00151d4
1568316251,87f2582b506c4a859cfd1c20df91d9aa,Form,1,0,intro,NULL,gender,female
1568316251,87f2582b506c4a859cfd1c20df91d9aa,Form,1,0,intro,NULL,_REACTION_TIME_,68242
1568316251,87f2582b506c4a859cfd1c20df91d9aa,Form,2,0,intro1,NULL,_REACTION_TIME_,32930
1568316251,87f2582b506c4a859cfd1c20df91d9aa,Form,3,0,intro2,NULL,_REACTION_TIME_,66259
1568316251,87f2582b506c4a859cfd1c20df91d9aa,Form,4,0,intro3,NULL,_REACTION_TIME_,40781
# Columns below this comment are as follows:
# 1. Time results were received.
# 2. MD5 hash of participant's IP address.
# 3. Controller name.
# 4. Item number.
# 5. Element number.
# 6. Type.
# 7. Group.
# 8. Sentence (or sentence MD5).
1568316251,87f2582b506c4a859cfd1c20df91d9aa,MultiSlider,53,0,EveryNot.Some.NoneBias,15,Barney has been submitting recipes to a famous cooking website for some time now. His partner asked whether any of his submissions had even been posted on the website. He said: "Every submission hasn't been published."
1568316251,87f2582b506c4a859cfd1c20df91d9aa,MultiSlider,53,0,EveryNot.Some.NoneBias,15,How well do the following sentences describe what the speaker meant?
# The lines below this comment are in groups of 2.
# The formats of the lines in each of these groups are as follows:
#
# Line 1:
#     Col. 1: Time results were received.
#     Col. 2: MD5 hash of participant's IP address.
#     Col. 3: Controller name.
#     Col. 4: Item number.
#     Col. 5: Element number.
#     Col. 6: Type.
#     Col. 7: Group.
#     Col. 8: html1.
#     Col. 9: startValue.
#     Col. 10: endValue.
#     Col. 11: value.
# Line 2:
#     Col. 1: Time results were received.
#     Col. 2: MD5 hash of participant's IP address.
#     Col. 3: Controller name.
#     Col. 4: Item number.
#     Col. 5: Element number.
#     Col. 6: Type.
#     Col. 7: Group.
#     Col. 8: html2.
#     Col. 9: startValue.
#     Col. 10: endValue.
#     Col. 11: value.
1568316251,87f2582b506c4a859cfd1c20df91d9aa,MultiSlider,53,0,EveryNot.Some.NoneBias,15,<b> Some but not all </b> of Barney's submissions have been published,0.00,100.00,1.83
1568316251,87f2582b506c4a859cfd1c20df91d9aa,MultiSlider,53,0,EveryNot.Some.NoneBias,15,<b> All </b> of Barney's submissions have been published,0.00,100.00,2.50
# Columns below this comment are as follows:
# 1. Time results were received.
# 2. MD5 hash of participant's IP address.
# 3. Controller name.
# 4. Item number.
# 5. Element number.
# 6. Type.
# 7. Group.
# 8. html.
# 9. startValue.
# 10. endValue.
# 11. value.
1568316251,87f2582b506c4a859cfd1c20df91d9aa,MultiSlider,53,0,EveryNot.Some.NoneBias,15,<b> None </b> of Barney's submissions have been published,0.00,100.00,62.17
1568316251,87f2582b506c4a859cfd1c20df91d9aa,MultiSlider,53,0,EveryNot.Some.NoneBias,15,<b> None </b> of Barney's submissions have been published,0.00,100.00,95.83
# The lines below this comment are in groups of 2.
# The formats of the lines in each of these groups are as follows:
#
# Line 1:
#     Col. 1: Time results were received.
#     Col. 2: MD5 hash of participant's IP address.
#     Col. 3: Controller name.
#     Col. 4: Item number.
#     Col. 5: Element number.
#     Col. 6: Type.
#     Col. 7: Group.
#     Col. 8: Field name.
#     Col. 9: Field value.
# Line 2:
#     Col. 1: Time results were received.
#     Col. 2: MD5 hash of participant's IP address.
#     Col. 3: Controller name.
#     Col. 4: Item number.
#     Col. 5: Element number.
#     Col. 6: Type.
#     Col. 7: Group.
#     Col. 8: Question (NULL if none).
#     Col. 9: Answer.
#     Col. 10: Whether or not answer was correct (NULL if N/A).
#     Col. 11: Time taken to answer.
1568316251,87f2582b506c4a859cfd1c20df91d9aa,MultiSlider,53,0,EveryNot.Some.NoneBias,15,_REACTION_TIME_,50806
1568316251,87f2582b506c4a859cfd1c20df91d9aa,Question,53,1,EveryNot.Some.NoneBias,15,What did Barney submit to the website?,His recipes,1,4733
# Columns below this comment are as follows:
# 1. Time results were received.
# 2. MD5 hash of participant's IP address.
# 3. Controller name.
# 4. Item number.
# 5. Element number.
# 6. Type.
# 7. Group.
# 8. Sentence (or sentence MD5).
1568316251,87f2582b506c4a859cfd1c20df91d9aa,MultiSlider,45,0,EveryNot.Some.HowManyBias,13,Lily inherited her mom's huge book collection. When her boyfriend visited%2C he wondered how much of this collection Lily had cataloged thus far. Lily added%2C "Every book hasn't been cataloged."
1568316251,87f2582b506c4a859cfd1c20df91d9aa,MultiSlider,45,0,EveryNot.Some.HowManyBias,13,How well do the following sentences describe what the speaker meant?
# The lines below this comment are in groups of 2.
# The formats of the lines in each of these groups are as follows:
#
# Line 1:
#     Col. 1: Time results were received.
#     Col. 2: MD5 hash of participant's IP address.
#     Col. 3: Controller name.
#     Col. 4: Item number.
#     Col. 5: Element number.
#     Col. 6: Type.
#     Col. 7: Group.
#     Col. 8: html1.
#     Col. 9: startValue.
#     Col. 10: endValue.
#     Col. 11: value.
# Line 2:
#     Col. 1: Time results were received.
#     Col. 2: MD5 hash of participant's IP address.
#     Col. 3: Controller name.
#     Col. 4: Item number.
#     Col. 5: Element number.
#     Col. 6: Type.
#     Col. 7: Group.
#     Col. 8: html2.
#     Col. 9: startValue.
#     Col. 10: endValue.
#     Col. 11: value.
1568316251,87f2582b506c4a859cfd1c20df91d9aa,MultiSlider,45,0,EveryNot.Some.HowManyBias,13,<b> None </b> of the books have been cataloged,0.00,100.00,95.83
1568316251,87f2582b506c4a859cfd1c20df91d9aa,MultiSlider,45,0,EveryNot.Some.HowManyBias,13,<b> Some but not all </b> of the books have been cataloged,0.00,100.00,2.50
# The lines below this comment are in groups of 2.
# The formats of the lines in each of these groups are as follows:
#
# Line 1:
#     Col. 1: Time results were received.
#     Col. 2: MD5 hash of participant's IP address.
#     Col. 3: Controller name.
#     Col. 4: Item number.
#     Col. 5: Element number.
#     Col. 6: Type.
#     Col. 7: Group.
#     Col. 8: html.
#     Col. 9: startValue.
#     Col. 10: endValue.
#     Col. 11: value.
# Line 2:
#     Col. 1: Time results were received.
#     Col. 2: MD5 hash of participant's IP address.
#     Col. 3: Controller name.
#     Col. 4: Item number.
#     Col. 5: Element number.
#     Col. 6: Type.
#     Col. 7: Group.
#     Col. 8: Field name.
#     Col. 9: Field value.
1568316251,87f2582b506c4a859cfd1c20df91d9aa,MultiSlider,45,0,EveryNot.Some.HowManyBias,13,<b> All </b> of the books have been cataloged,0.00,100.00,1.17
1568316251,87f2582b506c4a859cfd1c20df91d9aa,MultiSlider,45,0,EveryNot.Some.HowManyBias,13,_REACTION_TIME_,29563
# The lines below this comment are in groups of 2.
# The formats of the lines in each of these groups are as follows:
#
# Line 1:
#     Col. 1: Time results were received.
#     Col. 2: MD5 hash of participant's IP address.
#     Col. 3: Controller name.
#     Col. 4: Item number.
#     Col. 5: Element number.
#     Col. 6: Type.
#     Col. 7: Group.
#     Col. 8: Question (NULL if none).
#     Col. 9: Answer.
#     Col. 10: Whether or not answer was correct (NULL if N/A).
#     Col. 11: Time taken to answer.
# Line 2:
#     Col. 1: Time results were received.
#     Col. 2: MD5 hash of participant's IP address.
#     Col. 3: Controller name.
#     Col. 4: Item number.
#     Col. 5: Element number.
#     Col. 6: Type.
#     Col. 7: Group.
#     Col. 8: Sentence (or sentence MD5).
1568316251,87f2582b506c4a859cfd1c20df91d9aa,Question,45,1,EveryNot.Some.HowManyBias,13,Who did Lily get the book collection from?,Her grandma,0,5066
1568316251,87f2582b506c4a859cfd1c20df91d9aa,MultiSlider,54,0,EveryNot.Some.HowManyBias,16,A tech start-up is facing some financial issues. During an HR meeting%2C the board discussed how much they had to downsize. The HR announced%2C "Every employee isn't going to be laid off."
# The lines below this comment are in groups of 2.
# The formats of the lines in each of these groups are as follows:
#
# Line 1:
#     Col. 1: Time results were received.
#     Col. 2: MD5 hash of participant's IP address.
#     Col. 3: Controller name.
#     Col. 4: Item number.
#     Col. 5: Element number.
#     Col. 6: Type.
#     Col. 7: Group.
#     Col. 8: Sentence (or sentence MD5).
# Line 2:
#     Col. 1: Time results were received.
#     Col. 2: MD5 hash of participant's IP address.
#     Col. 3: Controller name.
#     Col. 4: Item number.
#     Col. 5: Element number.
#     Col. 6: Type.
#     Col. 7: Group.
#     Col. 8: html1.
#     Col. 9: startValue.
#     Col. 10: endValue.
#     Col. 11: value.
1568316251,87f2582b506c4a859cfd1c20df91d9aa,MultiSlider,54,0,EveryNot.Some.HowManyBias,16,How well do the following sentences describe what the speaker meant?
1568316251,87f2582b506c4a859cfd1c20df91d9aa,MultiSlider,54,0,EveryNot.Some.HowManyBias,16,<b> None </b> of the employees will be fired,0.00,100.00,2.50
# The lines below this comment are in groups of 2.
# The formats of the lines in each of these groups are as follows:
#
# Line 1:
#     Col. 1: Time results were received.
#     Col. 2: MD5 hash of participant's IP address.
#     Col. 3: Controller name.
#     Col. 4: Item number.
#     Col. 5: Element number.
#     Col. 6: Type.
#     Col. 7: Group.
#     Col. 8: html2.
#     Col. 9: startValue.
#     Col. 10: endValue.
#     Col. 11: value.
# Line 2:
#     Col. 1: Time results were received.
#     Col. 2: MD5 hash of participant's IP address.
#     Col. 3: Controller name.
#     Col. 4: Item number.
#     Col. 5: Element number.
#     Col. 6: Type.
#     Col. 7: Group.
#     Col. 8: html.
#     Col. 9: startValue.
#     Col. 10: endValue.
#     Col. 11: value.
1568316251,87f2582b506c4a859cfd1c20df91d9aa,MultiSlider,54,0,EveryNot.Some.HowManyBias,16,<b> Some but not all </b> of the employees will be fired,0.00,100.00,96.50
1568316251,87f2582b506c4a859cfd1c20df91d9aa,MultiSlider,54,0,EveryNot.Some.HowManyBias,16,<b> All </b> of the employees will be fired,0.00,100.00,5.83
# Columns below this comment are as follows:
# 1. Time results were received.
# 2. MD5 hash of participant's IP address.
# 3. Controller name.
# 4. Item number.
# 5. Element number.
# 6. Type.
# 7. Group.
# 8. html.
# 9. startValue.
# 10. endValue.
# 11. value.
1568316251,87f2582b506c4a859cfd1c20df91d9aa,MultiSlider,54,0,EveryNot.Some.HowManyBias,16,<b> All </b> of the employees will be fired,0.00,100.00,21.50
1568316251,87f2582b506c4a859cfd1c20df91d9aa,MultiSlider,54,0,EveryNot.Some.HowManyBias,16,<b> All </b> of the employees will be fired,0.00,100.00,0.50
# The lines below this comment are in groups of 2.
# The formats of the lines in each of these groups are as follows:
#
# Line 1:
#     Col. 1: Time results were received.
#     Col. 2: MD5 hash of participant's IP address.
#     Col. 3: Controller name.
#     Col. 4: Item number.
#     Col. 5: Element number.
#     Col. 6: Type.
#     Col. 7: Group.
#     Col. 8: Field name.
#     Col. 9: Field value.
# Line 2:
#     Col. 1: Time results were received.
#     Col. 2: MD5 hash of participant's IP address.
#     Col. 3: Controller name.
#     Col. 4: Item number.
#     Col. 5: Element number.
#     Col. 6: Type.
#     Col. 7: Group.
#     Col. 8: Question (NULL if none).
#     Col. 9: Answer.
#     Col. 10: Whether or not answer was correct (NULL if N/A).
#     Col. 11: Time taken to answer.
1568316251,87f2582b506c4a859cfd1c20df91d9aa,MultiSlider,54,0,EveryNot.Some.HowManyBias,16,_REACTION_TIME_,45988
1568316251,87f2582b506c4a859cfd1c20df91d9aa,Question,54,1,EveryNot.Some.HowManyBias,16,What did the board discuss during the meeting?,How much to downsize,1,5747
# Columns below this comment are as follows:
# 1. Time results were received.
# 2. MD5 hash of participant's IP address.
# 3. Controller name.
# 4. Item number.
# 5. Element number.
# 6. Type.
# 7. Group.
# 8. Sentence (or sentence MD5).
1568316251,87f2582b506c4a859cfd1c20df91d9aa,MultiSlider,80,0,EveryNot.None.NoneBias,24,Wayne is a diligent therapist who is always there for his patients. Today%2C he has a minor flu. His assistant asks if she has to cancel any of his appointments. Wayne said%2C "Every appointment doesn't have to be cancelled."
1568316251,87f2582b506c4a859cfd1c20df91d9aa,MultiSlider,80,0,EveryNot.None.NoneBias,24,How well do the following sentences describe what the speaker meant?
# The lines below this comment are in groups of 2.
# The formats of the lines in each of these groups are as follows:
#
# Line 1:
#     Col. 1: Time results were received.
#     Col. 2: MD5 hash of participant's IP address.
#     Col. 3: Controller name.
#     Col. 4: Item number.
#     Col. 5: Element number.
#     Col. 6: Type.
#     Col. 7: Group.
#     Col. 8: html1.
#     Col. 9: startValue.
#     Col. 10: endValue.
#     Col. 11: value.
# Line 2:
#     Col. 1: Time results were received.
#     Col. 2: MD5 hash of participant's IP address.
#     Col. 3: Controller name.
#     Col. 4: Item number.
#     Col. 5: Element number.
#     Col. 6: Type.
#     Col. 7: Group.
#     Col. 8: html2.
#     Col. 9: startValue.
#     Col. 10: endValue.
#     Col. 11: value.
1568316251,87f2582b506c4a859cfd1c20df91d9aa,MultiSlider,80,0,EveryNot.None.NoneBias,24,<b> Some but not all </b> of the appointments will have to be cancelled,0.00,100.00,98.17
1568316251,87f2582b506c4a859cfd1c20df91d9aa,MultiSlider,80,0,EveryNot.None.NoneBias,24,<b> All </b> of the appointments will have to be cancelled,0.00,100.00,0.50
# The lines below this comment are in groups of 2.
# The formats of the lines in each of these groups are as follows:
#
# Line 1:
#     Col. 1: Time results were received.
#     Col. 2: MD5 hash of participant's IP address.
#     Col. 3: Controller name.
#     Col. 4: Item number.
#     Col. 5: Element number.
#     Col. 6: Type.
#     Col. 7: Group.
#     Col. 8: html.
#     Col. 9: startValue.
#     Col. 10: endValue.
#     Col. 11: value.
# Line 2:
#     Col. 1: Time results were received.
#     Col. 2: MD5 hash of participant's IP address.
#     Col. 3: Controller name.
#     Col. 4: Item number.
#     Col. 5: Element number.
#     Col. 6: Type.
#     Col. 7: Group.
#     Col. 8: Field name.
#     Col. 9: Field value.
1568316251,87f2582b506c4a859cfd1c20df91d9aa,MultiSlider,80,0,EveryNot.None.NoneBias,24,<b> None </b> of the appointments will have to be cancelled,0.00,100.00,1.83
1568316251,87f2582b506c4a859cfd1c20df91d9aa,MultiSlider,80,0,EveryNot.None.NoneBias,24,_REACTION_TIME_,31484
# The lines below this comment are in groups of 2.
# The formats of the lines in each of these groups are as follows:
#
# Line 1:
#     Col. 1: Time results were received.
#     Col. 2: MD5 hash of participant's IP address.
#     Col. 3: Controller name.
#     Col. 4: Item number.
#     Col. 5: Element number.
#     Col. 6: Type.
#     Col. 7: Group.
#     Col. 8: Question (NULL if none).
#     Col. 9: Answer.
#     Col. 10: Whether or not answer was correct (NULL if N/A).
#     Col. 11: Time taken to answer.
# Line 2:
#     Col. 1: Time results were received.
#     Col. 2: MD5 hash of participant's IP address.
#     Col. 3: Controller name.
#     Col. 4: Item number.
#     Col. 5: Element number.
#     Col. 6: Type.
#     Col. 7: Group.
#     Col. 8: Sentence (or sentence MD5).
1568316251,87f2582b506c4a859cfd1c20df91d9aa,Question,80,1,EveryNot.None.NoneBias,24,What did Wayne's assistant ask about?,Whether any appointments need to be cancelled,1,15335
1568316251,87f2582b506c4a859cfd1c20df91d9aa,MultiSlider,36,0,EveryNot.Some.HowManyBias,10,The city council organized a spelling bee competition. As the competition began%2C the parents hoped that their kids could get as many answers correct as possible. The host announced%2C "Every answer wasn't correct."
# The lines below this comment are in groups of 2.
# The formats of the lines in each of these groups are as follows:
#
# Line 1:
#     Col. 1: Time results were received.
#     Col. 2: MD5 hash of participant's IP address.
#     Col. 3: Controller name.
#     Col. 4: Item number.
#     Col. 5: Element number.
#     Col. 6: Type.
#     Col. 7: Group.
#     Col. 8: Sentence (or sentence MD5).
# Line 2:
#     Col. 1: Time results were received.
#     Col. 2: MD5 hash of participant's IP address.
#     Col. 3: Controller name.
#     Col. 4: Item number.
#     Col. 5: Element number.
#     Col. 6: Type.
#     Col. 7: Group.
#     Col. 8: html1.
#     Col. 9: startValue.
#     Col. 10: endValue.
#     Col. 11: value.
1568316251,87f2582b506c4a859cfd1c20df91d9aa,MultiSlider,36,0,EveryNot.Some.HowManyBias,10,How well do the following sentences describe what the speaker meant?
1568316251,87f2582b506c4a859cfd1c20df91d9aa,MultiSlider,36,0,EveryNot.Some.HowManyBias,10,The kids didn't answer <b> any </b>of the questions correctly,0.00,100.00,98.50
# The lines below this comment are in groups of 2.
# The formats of the lines in each of these groups are as follows:
#
# Line 1:
#     Col. 1: Time results were received.
#     Col. 2: MD5 hash of participant's IP address.
#     Col. 3: Controller name.
#     Col. 4: Item number.
#     Col. 5: Element number.
#     Col. 6: Type.
#     Col. 7: Group.
#     Col. 8: html2.
#     Col. 9: startValue.
#     Col. 10: endValue.
#     Col. 11: value.
# Line 2:
#     Col. 1: Time results were received.
#     Col. 2: MD5 hash of participant's IP address.
#     Col. 3: Controller name.
#     Col. 4: Item number.
#     Col. 5: Element number.
#     Col. 6: Type.
#     Col. 7: Group.
#     Col. 8: html.
#     Col. 9: startValue.
#     Col. 10: endValue.
#     Col. 11: value.
1568316251,87f2582b506c4a859cfd1c20df91d9aa,MultiSlider,36,0,EveryNot.Some.HowManyBias,10,The kids answered <b> some but not all </b>of the questions correctly,0.00,100.00,1.50
1568316251,87f2582b506c4a859cfd1c20df91d9aa,MultiSlider,36,0,EveryNot.Some.HowManyBias,10,The kids answered <b> all </b>of the questions correctly,0.00,100.00,1.50
# The lines below this comment are in groups of 2.
# The formats of the lines in each of these groups are as follows:
#
# Line 1:
#     Col. 1: Time results were received.
#     Col. 2: MD5 hash of participant's IP address.
#     Col. 3: Controller name.
#     Col. 4: Item number.
#     Col. 5: Element number.
#     Col. 6: Type.
#     Col. 7: Group.
#     Col. 8: Field name.
#     Col. 9: Field value.
# Line 2:
#     Col. 1: Time results were received.
#     Col. 2: MD5 hash of participant's IP address.
#     Col. 3: Controller name.
#     Col. 4: Item number.
#     Col. 5: Element number.
#     Col. 6: Type.
#     Col. 7: Group.
#     Col. 8: Sentence (or sentence MD5).
1568316251,87f2582b506c4a859cfd1c20df91d9aa,MultiSlider,36,0,EveryNot.Some.HowManyBias,10,_REACTION_TIME_,37716
1568316251,87f2582b506c4a859cfd1c20df91d9aa,MultiSlider,31,0,EveryNot.All.AllBias,8,A glamorous cocktail event was being held in the Hilton hotel. When guests arrived%2C the receptionist checked to make sure everyone had observed the dress code. The receptionist said%2C "Every guest wasn't dressed properly."
# The lines below this comment are in groups of 2.
# The formats of the lines in each of these groups are as follows:
#
# Line 1:
#     Col. 1: Time results were received.
#     Col. 2: MD5 hash of participant's IP address.
#     Col. 3: Controller name.
#     Col. 4: Item number.
#     Col. 5: Element number.
#     Col. 6: Type.
#     Col. 7: Group.
#     Col. 8: Sentence (or sentence MD5).
# Line 2:
#     Col. 1: Time results were received.
#     Col. 2: MD5 hash of participant's IP address.
#     Col. 3: Controller name.
#     Col. 4: Item number.
#     Col. 5: Element number.
#     Col. 6: Type.
#     Col. 7: Group.
#     Col. 8: html1.
#     Col. 9: startValue.
#     Col. 10: endValue.
#     Col. 11: value.
1568316251,87f2582b506c4a859cfd1c20df91d9aa,MultiSlider,31,0,EveryNot.All.AllBias,8,How well do the following sentences describe what the speaker meant?
1568316251,87f2582b506c4a859cfd1c20df91d9aa,MultiSlider,31,0,EveryNot.All.AllBias,8,<b> All </b> of the guests were dressed properly,0.00,100.00,1.50
# The lines below this comment are in groups of 2.
# The formats of the lines in each of these groups are as follows:
#
# Line 1:
#     Col. 1: Time results were received.
#     Col. 2: MD5 hash of participant's IP address.
#     Col. 3: Controller name.
#     Col. 4: Item number.
#     Col. 5: Element number.
#     Col. 6: Type.
#     Col. 7: Group.
#     Col. 8: html2.
#     Col. 9: startValue.
#     Col. 10: endValue.
#     Col. 11: value.
# Line 2:
#     Col. 1: Time results were received.
#     Col. 2: MD5 hash of participant's IP address.
#     Col. 3: Controller name.
#     Col. 4: Item number.
#     Col. 5: Element number.
#     Col. 6: Type.
#     Col. 7: Group.
#     Col. 8: html.
#     Col. 9: startValue.
#     Col. 10: endValue.
#     Col. 11: value.
1568316251,87f2582b506c4a859cfd1c20df91d9aa,MultiSlider,31,0,EveryNot.All.AllBias,8,<b> None </b> of the guests were dressed properly,0.00,100.00,1.17
1568316251,87f2582b506c4a859cfd1c20df91d9aa,MultiSlider,31,0,EveryNot.All.AllBias,8,<b> Some but not all </b> of the guests were dressed properly,0.00,100.00,96.83
# The lines below this comment are in groups of 2.
# The formats of the lines in each of these groups are as follows:
#
# Line 1:
#     Col. 1: Time results were received.
#     Col. 2: MD5 hash of participant's IP address.
#     Col. 3: Controller name.
#     Col. 4: Item number.
#     Col. 5: Element number.
#     Col. 6: Type.
#     Col. 7: Group.
#     Col. 8: Field name.
#     Col. 9: Field value.
# Line 2:
#     Col. 1: Time results were received.
#     Col. 2: MD5 hash of participant's IP address.
#     Col. 3: Controller name.
#     Col. 4: Item number.
#     Col. 5: Element number.
#     Col. 6: Type.
#     Col. 7: Group.
#     Col. 8: Question (NULL if none).
#     Col. 9: Answer.
#     Col. 10: Whether or not answer was correct (NULL if N/A).
#     Col. 11: Time taken to answer.
1568316251,87f2582b506c4a859cfd1c20df91d9aa,MultiSlider,31,0,EveryNot.All.AllBias,8,_REACTION_TIME_,27589
1568316251,87f2582b506c4a859cfd1c20df91d9aa,Question,31,1,EveryNot.All.AllBias,8,What was the receptionist trying to do?,Make sure that everyone was properly dressed,1,14505
# Columns below this comment are as follows:
# 1. Time results were received.
# 2. MD5 hash of participant's IP address.
# 3. Controller name.
# 4. Item number.
# 5. Element number.
# 6. Type.
# 7. Group.
# 8. Sentence (or sentence MD5).
1568316251,87f2582b506c4a859cfd1c20df91d9aa,MultiSlider,49,0,EveryNot.Some.AllBias,14,Roy recently started a career as a professional gamer. A journalist interviewed him%2C and asked if he had already been invited to all of the five Major League Gaming tournaments. He admitted%2C "Every Major League Gaming tournament hasn't invited me."
1568316251,87f2582b506c4a859cfd1c20df91d9aa,MultiSlider,49,0,EveryNot.Some.AllBias,14,How well do the following sentences describe what the speaker meant?
# The lines below this comment are in groups of 2.
# The formats of the lines in each of these groups are as follows:
#
# Line 1:
#     Col. 1: Time results were received.
#     Col. 2: MD5 hash of participant's IP address.
#     Col. 3: Controller name.
#     Col. 4: Item number.
#     Col. 5: Element number.
#     Col. 6: Type.
#     Col. 7: Group.
#     Col. 8: html1.
#     Col. 9: startValue.
#     Col. 10: endValue.
#     Col. 11: value.
# Line 2:
#     Col. 1: Time results were received.
#     Col. 2: MD5 hash of participant's IP address.
#     Col. 3: Controller name.
#     Col. 4: Item number.
#     Col. 5: Element number.
#     Col. 6: Type.
#     Col. 7: Group.
#     Col. 8: html2.
#     Col. 9: startValue.
#     Col. 10: endValue.
#     Col. 11: value.
1568316251,87f2582b506c4a859cfd1c20df91d9aa,MultiSlider,49,0,EveryNot.Some.AllBias,14, Roy has been invited to<b> all </b>of the Major League Gaming tournaments,0.00,100.00,0.17
1568316251,87f2582b506c4a859cfd1c20df91d9aa,MultiSlider,49,0,EveryNot.Some.AllBias,14, Roy hasn't been invited to<b> any </b>of the Major League Gaming tournaments,0.00,100.00,98.83
# The lines below this comment are in groups of 2.
# The formats of the lines in each of these groups are as follows:
#
# Line 1:
#     Col. 1: Time results were received.
#     Col. 2: MD5 hash of participant's IP address.
#     Col. 3: Controller name.
#     Col. 4: Item number.
#     Col. 5: Element number.
#     Col. 6: Type.
#     Col. 7: Group.
#     Col. 8: html.
#     Col. 9: startValue.
#     Col. 10: endValue.
#     Col. 11: value.
# Line 2:
#     Col. 1: Time results were received.
#     Col. 2: MD5 hash of participant's IP address.
#     Col. 3: Controller name.
#     Col. 4: Item number.
#     Col. 5: Element number.
#     Col. 6: Type.
#     Col. 7: Group.
#     Col. 8: Field name.
#     Col. 9: Field value.
1568316251,87f2582b506c4a859cfd1c20df91d9aa,MultiSlider,49,0,EveryNot.Some.AllBias,14, Roy has been invited to<b> some but not all </b>of the Major League Gaming tournaments,0.00,100.00,1.50
1568316251,87f2582b506c4a859cfd1c20df91d9aa,MultiSlider,49,0,EveryNot.Some.AllBias,14,_REACTION_TIME_,41859
# Columns below this comment are as follows:
# 1. Time results were received.
# 2. MD5 hash of participant's IP address.
# 3. Controller name.
# 4. Item number.
# 5. Element number.
# 6. Type.
# 7. Group.
# 8. Sentence (or sentence MD5).
1568316251,87f2582b506c4a859cfd1c20df91d9aa,MultiSlider,13,0,EveryNot.All.AllBias,2,Erin is a vet. During her last trip%2C she encountered six deer in critical condition%2C and she did the best she could to save all their lives. Upon return%2C Erin said%2C "Every deer didn't survive."
1568316251,87f2582b506c4a859cfd1c20df91d9aa,MultiSlider,13,0,EveryNot.All.AllBias,2,How well do the following sentences describe what the speaker meant?
# The lines below this comment are in groups of 2.
# The formats of the lines in each of these groups are as follows:
#
# Line 1:
#     Col. 1: Time results were received.
#     Col. 2: MD5 hash of participant's IP address.
#     Col. 3: Controller name.
#     Col. 4: Item number.
#     Col. 5: Element number.
#     Col. 6: Type.
#     Col. 7: Group.
#     Col. 8: html1.
#     Col. 9: startValue.
#     Col. 10: endValue.
#     Col. 11: value.
# Line 2:
#     Col. 1: Time results were received.
#     Col. 2: MD5 hash of participant's IP address.
#     Col. 3: Controller name.
#     Col. 4: Item number.
#     Col. 5: Element number.
#     Col. 6: Type.
#     Col. 7: Group.
#     Col. 8: html2.
#     Col. 9: startValue.
#     Col. 10: endValue.
#     Col. 11: value.
1568316251,87f2582b506c4a859cfd1c20df91d9aa,MultiSlider,13,0,EveryNot.All.AllBias,2,<b> All </b> of the six deer survived,0.00,100.00,0.83
1568316251,87f2582b506c4a859cfd1c20df91d9aa,MultiSlider,13,0,EveryNot.All.AllBias,2,<b> None </b> of the six deer survived,0.00,100.00,97.83
# The lines below this comment are in groups of 2.
# The formats of the lines in each of these groups are as follows:
#
# Line 1:
#     Col. 1: Time results were received.
#     Col. 2: MD5 hash of participant's IP address.
#     Col. 3: Controller name.
#     Col. 4: Item number.
#     Col. 5: Element number.
#     Col. 6: Type.
#     Col. 7: Group.
#     Col. 8: html.
#     Col. 9: startValue.
#     Col. 10: endValue.
#     Col. 11: value.
# Line 2:
#     Col. 1: Time results were received.
#     Col. 2: MD5 hash of participant's IP address.
#     Col. 3: Controller name.
#     Col. 4: Item number.
#     Col. 5: Element number.
#     Col. 6: Type.
#     Col. 7: Group.
#     Col. 8: Field name.
#     Col. 9: Field value.
1568316251,87f2582b506c4a859cfd1c20df91d9aa,MultiSlider,13,0,EveryNot.All.AllBias,2,<b> Some but not all </b> of the six deer survived,0.00,100.00,1.50
1568316251,87f2582b506c4a859cfd1c20df91d9aa,MultiSlider,13,0,EveryNot.All.AllBias,2,_REACTION_TIME_,29757
# Columns below this comment are as follows:
# 1. Time results were received.
# 2. MD5 hash of participant's IP address.
# 3. Controller name.
# 4. Item number.
# 5. Element number.
# 6. Type.
# 7. Group.
# 8. Sentence (or sentence MD5).
1568316251,87f2582b506c4a859cfd1c20df91d9aa,MultiSlider,17,0,EveryNot.All.NoneBias,3,Rachel is an industrious teaching assistant who has to grade student essays. After a week%2C her boss asks if she has already started grading the essays. She told her mentor%2C "Every essay hasn't been graded."
1568316251,87f2582b506c4a859cfd1c20df91d9aa,MultiSlider,17,0,EveryNot.All.NoneBias,3,How well do the following sentences describe what the speaker meant?
# The lines below this comment are in groups of 2.
# The formats of the lines in each of these groups are as follows:
#
# Line 1:
#     Col. 1: Time results were received.
#     Col. 2: MD5 hash of participant's IP address.
#     Col. 3: Controller name.
#     Col. 4: Item number.
#     Col. 5: Element number.
#     Col. 6: Type.
#     Col. 7: Group.
#     Col. 8: html1.
#     Col. 9: startValue.
#     Col. 10: endValue.
#     Col. 11: value.
# Line 2:
#     Col. 1: Time results were received.
#     Col. 2: MD5 hash of participant's IP address.
#     Col. 3: Controller name.
#     Col. 4: Item number.
#     Col. 5: Element number.
#     Col. 6: Type.
#     Col. 7: Group.
#     Col. 8: html2.
#     Col. 9: startValue.
#     Col. 10: endValue.
#     Col. 11: value.
1568316251,87f2582b506c4a859cfd1c20df91d9aa,MultiSlider,17,0,EveryNot.All.NoneBias,3, Rachel graded <b> some but not all </b>of the student essays,0.00,100.00,0.83
1568316251,87f2582b506c4a859cfd1c20df91d9aa,MultiSlider,17,0,EveryNot.All.NoneBias,3, Rachel graded <b> all </b>of the student essays,0.00,100.00,2.17
# The lines below this comment are in groups of 2.
