#
# Results on Wednesday August 21 2019 14:02:52 UTC.
# USER AGENT: Mozilla/5.0 (Windows NT 10.0; Win64; x64) AppleWebKit/537.36 (KHTML, like Gecko) Chrome/76.0.3809.100 Safari/537.36
# Design number was non-random = 1
#
# Columns below this comment are as follows:
# 1. Time results were received.
# 2. MD5 hash of participant's IP address.
# 3. Controller name.
# 4. Item number.
# 5. Element number.
# 6. Type.
# 7. Group.
# 8. Field name.
# 9. Field value.
1566396173,ffda7389b1c57ac9d2a46a3f93d4d8f0,Form,7,0,consent,NULL,consent,yes
1566396173,ffda7389b1c57ac9d2a46a3f93d4d8f0,Form,7,0,consent,NULL,_REACTION_TIME_,13400
1566396173,ffda7389b1c57ac9d2a46a3f93d4d8f0,Form,1,0,intro,NULL,age,25
1566396173,ffda7389b1c57ac9d2a46a3f93d4d8f0,Form,1,0,intro,NULL,natlang,English
1566396173,ffda7389b1c57ac9d2a46a3f93d4d8f0,Form,1,0,intro,NULL,otherlang,French (beginner)
1566396173,ffda7389b1c57ac9d2a46a3f93d4d8f0,Form,1,0,intro,NULL,Prolific,583db8742b21bf0001016d1b
1566396173,ffda7389b1c57ac9d2a46a3f93d4d8f0,Form,1,0,intro,NULL,gender,female
1566396173,ffda7389b1c57ac9d2a46a3f93d4d8f0,Form,1,0,intro,NULL,_REACTION_TIME_,28620
1566396173,ffda7389b1c57ac9d2a46a3f93d4d8f0,Form,2,0,intro1,NULL,_REACTION_TIME_,23088
1566396173,ffda7389b1c57ac9d2a46a3f93d4d8f0,Form,3,0,intro2,NULL,_REACTION_TIME_,10905
1566396173,ffda7389b1c57ac9d2a46a3f93d4d8f0,Form,4,0,intro3,NULL,_REACTION_TIME_,5771
# Columns below this comment are as follows:
# 1. Time results were received.
# 2. MD5 hash of participant's IP address.
# 3. Controller name.
# 4. Item number.
# 5. Element number.
# 6. Type.
# 7. Group.
# 8. Sentence (or sentence MD5).
1566396173,ffda7389b1c57ac9d2a46a3f93d4d8f0,MultiSlider,28,0,EveryNot.All.AllBias,7,The nursery normally changes infants' diapers before they go to nap. This afternoon%2C a health inspector wanted to make sure all of the infants had been changed before nap time.
1566396173,ffda7389b1c57ac9d2a46a3f93d4d8f0,MultiSlider,28,0,EveryNot.All.AllBias,7,How likely are the following situations?
# The lines below this comment are in groups of 2.
# The formats of the lines in each of these groups are as follows:
#
# Line 1:
#     Col. 1: Time results were received.
#     Col. 2: MD5 hash of participant's IP address.
#     Col. 3: Controller name.
#     Col. 4: Item number.
#     Col. 5: Element number.
#     Col. 6: Type.
#     Col. 7: Group.
#     Col. 8: html1.
#     Col. 9: startValue.
#     Col. 10: endValue.
#     Col. 11: value.
# Line 2:
#     Col. 1: Time results were received.
#     Col. 2: MD5 hash of participant's IP address.
#     Col. 3: Controller name.
#     Col. 4: Item number.
#     Col. 5: Element number.
#     Col. 6: Type.
#     Col. 7: Group.
#     Col. 8: html2.
#     Col. 9: startValue.
#     Col. 10: endValue.
#     Col. 11: value.
1566396173,ffda7389b1c57ac9d2a46a3f93d4d8f0,MultiSlider,28,0,EveryNot.All.AllBias,7,<b> None </b> of the infants have been changed,0.00,100.00,2.50
1566396173,ffda7389b1c57ac9d2a46a3f93d4d8f0,MultiSlider,28,0,EveryNot.All.AllBias,7,<b> Some but not all </b> of the infants have been changed,0.00,100.00,74.50
# The lines below this comment are in groups of 2.
# The formats of the lines in each of these groups are as follows:
#
# Line 1:
#     Col. 1: Time results were received.
#     Col. 2: MD5 hash of participant's IP address.
#     Col. 3: Controller name.
#     Col. 4: Item number.
#     Col. 5: Element number.
#     Col. 6: Type.
#     Col. 7: Group.
#     Col. 8: html.
#     Col. 9: startValue.
#     Col. 10: endValue.
#     Col. 11: value.
# Line 2:
#     Col. 1: Time results were received.
#     Col. 2: MD5 hash of participant's IP address.
#     Col. 3: Controller name.
#     Col. 4: Item number.
#     Col. 5: Element number.
#     Col. 6: Type.
#     Col. 7: Group.
#     Col. 8: Sentence (or sentence MD5).
1566396173,ffda7389b1c57ac9d2a46a3f93d4d8f0,MultiSlider,28,0,EveryNot.All.AllBias,7,<b> All </b> of the infants have been changed,0.00,100.00,98.50
1566396173,ffda7389b1c57ac9d2a46a3f93d4d8f0,MultiSlider,69,0,EveryNot.None.HowManyBias,21,Julia is a straight-A student. This semester%2C she enrolled for the easiest classes. After the semester%2C her mother phoned her to find out how her daughter had performed this semester.
# The lines below this comment are in groups of 2.
# The formats of the lines in each of these groups are as follows:
#
# Line 1:
#     Col. 1: Time results were received.
#     Col. 2: MD5 hash of participant's IP address.
#     Col. 3: Controller name.
#     Col. 4: Item number.
#     Col. 5: Element number.
#     Col. 6: Type.
#     Col. 7: Group.
#     Col. 8: Sentence (or sentence MD5).
# Line 2:
#     Col. 1: Time results were received.
#     Col. 2: MD5 hash of participant's IP address.
#     Col. 3: Controller name.
#     Col. 4: Item number.
#     Col. 5: Element number.
#     Col. 6: Type.
#     Col. 7: Group.
#     Col. 8: html1.
#     Col. 9: startValue.
#     Col. 10: endValue.
#     Col. 11: value.
1566396173,ffda7389b1c57ac9d2a46a3f93d4d8f0,MultiSlider,69,0,EveryNot.None.HowManyBias,21,How likely are the following situations?
1566396173,ffda7389b1c57ac9d2a46a3f93d4d8f0,MultiSlider,69,0,EveryNot.None.HowManyBias,21, Julia failed<b> some but not all of </b>the classes,0.00,100.00,4.83
# The lines below this comment are in groups of 2.
# The formats of the lines in each of these groups are as follows:
#
# Line 1:
#     Col. 1: Time results were received.
#     Col. 2: MD5 hash of participant's IP address.
#     Col. 3: Controller name.
#     Col. 4: Item number.
#     Col. 5: Element number.
#     Col. 6: Type.
#     Col. 7: Group.
#     Col. 8: html1.
#     Col. 9: startValue.
#     Col. 10: endValue.
#     Col. 11: value.
# Line 2:
#     Col. 1: Time results were received.
#     Col. 2: MD5 hash of participant's IP address.
#     Col. 3: Controller name.
#     Col. 4: Item number.
#     Col. 5: Element number.
#     Col. 6: Type.
#     Col. 7: Group.
#     Col. 8: html2.
#     Col. 9: startValue.
#     Col. 10: endValue.
#     Col. 11: value.
1566396173,ffda7389b1c57ac9d2a46a3f93d4d8f0,MultiSlider,69,0,EveryNot.None.HowManyBias,21, Julia failed<b> some but not all of </b>the classes,0.00,100.00,27.17
1566396173,ffda7389b1c57ac9d2a46a3f93d4d8f0,MultiSlider,69,0,EveryNot.None.HowManyBias,21, Julia failed<b> all of </b>the classes,0.00,100.00,1.50
# The lines below this comment are in groups of 2.
# The formats of the lines in each of these groups are as follows:
#
# Line 1:
#     Col. 1: Time results were received.
#     Col. 2: MD5 hash of participant's IP address.
#     Col. 3: Controller name.
#     Col. 4: Item number.
#     Col. 5: Element number.
#     Col. 6: Type.
#     Col. 7: Group.
#     Col. 8: html.
#     Col. 9: startValue.
#     Col. 10: endValue.
#     Col. 11: value.
# Line 2:
#     Col. 1: Time results were received.
#     Col. 2: MD5 hash of participant's IP address.
#     Col. 3: Controller name.
#     Col. 4: Item number.
#     Col. 5: Element number.
#     Col. 6: Type.
#     Col. 7: Group.
#     Col. 8: Sentence (or sentence MD5).
1566396173,ffda7389b1c57ac9d2a46a3f93d4d8f0,MultiSlider,69,0,EveryNot.None.HowManyBias,21, Julia didn't fail<b> any of </b>the classes,0.00,100.00,98.50
1566396173,ffda7389b1c57ac9d2a46a3f93d4d8f0,MultiSlider,37,0,EveryNot.Some.AllBias,10,The city council organized a spelling bee competition. As the competition began%2C the parents wondered if their kids would be able to get everything correct.
# The lines below this comment are in groups of 2.
# The formats of the lines in each of these groups are as follows:
#
# Line 1:
#     Col. 1: Time results were received.
#     Col. 2: MD5 hash of participant's IP address.
#     Col. 3: Controller name.
#     Col. 4: Item number.
#     Col. 5: Element number.
#     Col. 6: Type.
#     Col. 7: Group.
#     Col. 8: Sentence (or sentence MD5).
# Line 2:
#     Col. 1: Time results were received.
#     Col. 2: MD5 hash of participant's IP address.
#     Col. 3: Controller name.
#     Col. 4: Item number.
#     Col. 5: Element number.
#     Col. 6: Type.
#     Col. 7: Group.
#     Col. 8: html1.
#     Col. 9: startValue.
#     Col. 10: endValue.
#     Col. 11: value.
1566396173,ffda7389b1c57ac9d2a46a3f93d4d8f0,MultiSlider,37,0,EveryNot.Some.AllBias,10,How likely are the following situations?
1566396173,ffda7389b1c57ac9d2a46a3f93d4d8f0,MultiSlider,37,0,EveryNot.Some.AllBias,10,The kids didn't answer <b> any of </b>the questions correctly,0.00,100.00,9.83
# Columns below this comment are as follows:
# 1. Time results were received.
# 2. MD5 hash of participant's IP address.
# 3. Controller name.
# 4. Item number.
# 5. Element number.
# 6. Type.
# 7. Group.
# 8. html2.
# 9. startValue.
# 10. endValue.
# 11. value.
1566396173,ffda7389b1c57ac9d2a46a3f93d4d8f0,MultiSlider,37,0,EveryNot.Some.AllBias,10,The kids answered <b> some but not all of </b>the questions correctly,0.00,100.00,65.50
1566396173,ffda7389b1c57ac9d2a46a3f93d4d8f0,MultiSlider,37,0,EveryNot.Some.AllBias,10,The kids answered <b> some but not all of </b>the questions correctly,0.00,100.00,98.50
# The lines below this comment are in groups of 2.
# The formats of the lines in each of these groups are as follows:
#
# Line 1:
#     Col. 1: Time results were received.
#     Col. 2: MD5 hash of participant's IP address.
#     Col. 3: Controller name.
#     Col. 4: Item number.
#     Col. 5: Element number.
#     Col. 6: Type.
#     Col. 7: Group.
#     Col. 8: html.
#     Col. 9: startValue.
#     Col. 10: endValue.
#     Col. 11: value.
# Line 2:
#     Col. 1: Time results were received.
#     Col. 2: MD5 hash of participant's IP address.
#     Col. 3: Controller name.
#     Col. 4: Item number.
#     Col. 5: Element number.
#     Col. 6: Type.
#     Col. 7: Group.
#     Col. 8: Sentence (or sentence MD5).
1566396173,ffda7389b1c57ac9d2a46a3f93d4d8f0,MultiSlider,37,0,EveryNot.Some.AllBias,10,The kids answered <b> all of </b>the questions correctly,0.00,100.00,75.50
1566396173,ffda7389b1c57ac9d2a46a3f93d4d8f0,MultiSlider,42,0,EveryNot.Some.HowManyBias,12,Sue and Marc went to a two-day science exhibition. On the first day%2C the organizers approached them and asked about the number of booths they had checked off the map so far.
# The lines below this comment are in groups of 2.
# The formats of the lines in each of these groups are as follows:
#
# Line 1:
#     Col. 1: Time results were received.
#     Col. 2: MD5 hash of participant's IP address.
#     Col. 3: Controller name.
#     Col. 4: Item number.
#     Col. 5: Element number.
#     Col. 6: Type.
#     Col. 7: Group.
#     Col. 8: Sentence (or sentence MD5).
# Line 2:
#     Col. 1: Time results were received.
#     Col. 2: MD5 hash of participant's IP address.
#     Col. 3: Controller name.
#     Col. 4: Item number.
#     Col. 5: Element number.
#     Col. 6: Type.
#     Col. 7: Group.
#     Col. 8: html1.
#     Col. 9: startValue.
#     Col. 10: endValue.
#     Col. 11: value.
1566396173,ffda7389b1c57ac9d2a46a3f93d4d8f0,MultiSlider,42,0,EveryNot.Some.HowManyBias,12,How likely are the following situations?
1566396173,ffda7389b1c57ac9d2a46a3f93d4d8f0,MultiSlider,42,0,EveryNot.Some.HowManyBias,12,Sue and Marc have visited<b> some but not all of </b>the booths so far,0.00,100.00,98.83
# Columns below this comment are as follows:
# 1. Time results were received.
# 2. MD5 hash of participant's IP address.
# 3. Controller name.
# 4. Item number.
# 5. Element number.
# 6. Type.
# 7. Group.
# 8. html2.
# 9. startValue.
# 10. endValue.
# 11. value.
1566396173,ffda7389b1c57ac9d2a46a3f93d4d8f0,MultiSlider,42,0,EveryNot.Some.HowManyBias,12,Sue and Marc have visited<b> all of </b>the booths so far,0.00,100.00,40.83
1566396173,ffda7389b1c57ac9d2a46a3f93d4d8f0,MultiSlider,42,0,EveryNot.Some.HowManyBias,12,Sue and Marc have visited<b> all of </b>the booths so far,0.00,100.00,32.83
1566396173,ffda7389b1c57ac9d2a46a3f93d4d8f0,MultiSlider,42,0,EveryNot.Some.HowManyBias,12,Sue and Marc have visited<b> all of </b>the booths so far,0.00,100.00,24.17
1566396173,ffda7389b1c57ac9d2a46a3f93d4d8f0,MultiSlider,42,0,EveryNot.Some.HowManyBias,12,Sue and Marc have visited<b> all of </b>the booths so far,0.00,100.00,9.83
# The lines below this comment are in groups of 2.
# The formats of the lines in each of these groups are as follows:
#
# Line 1:
#     Col. 1: Time results were received.
#     Col. 2: MD5 hash of participant's IP address.
#     Col. 3: Controller name.
#     Col. 4: Item number.
#     Col. 5: Element number.
#     Col. 6: Type.
#     Col. 7: Group.
#     Col. 8: html.
#     Col. 9: startValue.
#     Col. 10: endValue.
#     Col. 11: value.
# Line 2:
#     Col. 1: Time results were received.
#     Col. 2: MD5 hash of participant's IP address.
#     Col. 3: Controller name.
#     Col. 4: Item number.
#     Col. 5: Element number.
#     Col. 6: Type.
#     Col. 7: Group.
#     Col. 8: Sentence (or sentence MD5).
1566396173,ffda7389b1c57ac9d2a46a3f93d4d8f0,MultiSlider,42,0,EveryNot.Some.HowManyBias,12,Sue and Marc haven't visited<b> any of </b>the booths so far,0.00,100.00,11.17
1566396173,ffda7389b1c57ac9d2a46a3f93d4d8f0,MultiSlider,55,0,EveryNot.Some.AllBias,16,A tech start-up is facing some financial issues. During an HR meeting%2C the board debated whether they had to lay off all of their employees.
# The lines below this comment are in groups of 2.
# The formats of the lines in each of these groups are as follows:
#
# Line 1:
#     Col. 1: Time results were received.
#     Col. 2: MD5 hash of participant's IP address.
#     Col. 3: Controller name.
#     Col. 4: Item number.
#     Col. 5: Element number.
#     Col. 6: Type.
#     Col. 7: Group.
#     Col. 8: Sentence (or sentence MD5).
# Line 2:
#     Col. 1: Time results were received.
#     Col. 2: MD5 hash of participant's IP address.
#     Col. 3: Controller name.
#     Col. 4: Item number.
#     Col. 5: Element number.
#     Col. 6: Type.
#     Col. 7: Group.
#     Col. 8: html1.
#     Col. 9: startValue.
#     Col. 10: endValue.
#     Col. 11: value.
1566396173,ffda7389b1c57ac9d2a46a3f93d4d8f0,MultiSlider,55,0,EveryNot.Some.AllBias,16,How likely are the following situations?
1566396173,ffda7389b1c57ac9d2a46a3f93d4d8f0,MultiSlider,55,0,EveryNot.Some.AllBias,16,<b> None </b> of the employees will be fired,0.00,100.00,33.50
# The lines below this comment are in groups of 2.
# The formats of the lines in each of these groups are as follows:
#
# Line 1:
#     Col. 1: Time results were received.
#     Col. 2: MD5 hash of participant's IP address.
#     Col. 3: Controller name.
#     Col. 4: Item number.
#     Col. 5: Element number.
#     Col. 6: Type.
#     Col. 7: Group.
#     Col. 8: html2.
#     Col. 9: startValue.
#     Col. 10: endValue.
#     Col. 11: value.
# Line 2:
#     Col. 1: Time results were received.
#     Col. 2: MD5 hash of participant's IP address.
#     Col. 3: Controller name.
#     Col. 4: Item number.
#     Col. 5: Element number.
#     Col. 6: Type.
#     Col. 7: Group.
#     Col. 8: html.
#     Col. 9: startValue.
#     Col. 10: endValue.
#     Col. 11: value.
1566396173,ffda7389b1c57ac9d2a46a3f93d4d8f0,MultiSlider,55,0,EveryNot.Some.AllBias,16,<b> Some but not all </b> of the employees will be fired,0.00,100.00,93.83
1566396173,ffda7389b1c57ac9d2a46a3f93d4d8f0,MultiSlider,55,0,EveryNot.Some.AllBias,16,<b> All </b> of the employees will be fired,0.00,100.00,18.50
# Columns below this comment are as follows:
# 1. Time results were received.
# 2. MD5 hash of participant's IP address.
# 3. Controller name.
# 4. Item number.
# 5. Element number.
# 6. Type.
# 7. Group.
# 8. Sentence (or sentence MD5).
1566396173,ffda7389b1c57ac9d2a46a3f93d4d8f0,MultiSlider,10,0,EveryNot.All.AllBias,1,The whole kindergarten was going on a field trip. The teacher jumped on the bus to see if all the children had been seated.
1566396173,ffda7389b1c57ac9d2a46a3f93d4d8f0,MultiSlider,10,0,EveryNot.All.AllBias,1,How likely are the following situations?
# The lines below this comment are in groups of 2.
# The formats of the lines in each of these groups are as follows:
#
# Line 1:
#     Col. 1: Time results were received.
#     Col. 2: MD5 hash of participant's IP address.
#     Col. 3: Controller name.
#     Col. 4: Item number.
#     Col. 5: Element number.
#     Col. 6: Type.
#     Col. 7: Group.
#     Col. 8: html1.
#     Col. 9: startValue.
#     Col. 10: endValue.
#     Col. 11: value.
# Line 2:
#     Col. 1: Time results were received.
#     Col. 2: MD5 hash of participant's IP address.
#     Col. 3: Controller name.
#     Col. 4: Item number.
#     Col. 5: Element number.
#     Col. 6: Type.
#     Col. 7: Group.
#     Col. 8: html2.
#     Col. 9: startValue.
#     Col. 10: endValue.
#     Col. 11: value.
1566396173,ffda7389b1c57ac9d2a46a3f93d4d8f0,MultiSlider,10,0,EveryNot.All.AllBias,1,<b> None </b> of the kindergartners got on the bus,0.00,100.00,28.83
1566396173,ffda7389b1c57ac9d2a46a3f93d4d8f0,MultiSlider,10,0,EveryNot.All.AllBias,1,<b> Some but not all </b> of the kindergartners got on the bus,0.00,100.00,77.83
# The lines below this comment are in groups of 2.
# The formats of the lines in each of these groups are as follows:
#
# Line 1:
#     Col. 1: Time results were received.
#     Col. 2: MD5 hash of participant's IP address.
#     Col. 3: Controller name.
#     Col. 4: Item number.
#     Col. 5: Element number.
#     Col. 6: Type.
#     Col. 7: Group.
#     Col. 8: html.
#     Col. 9: startValue.
#     Col. 10: endValue.
#     Col. 11: value.
# Line 2:
#     Col. 1: Time results were received.
#     Col. 2: MD5 hash of participant's IP address.
#     Col. 3: Controller name.
#     Col. 4: Item number.
#     Col. 5: Element number.
#     Col. 6: Type.
#     Col. 7: Group.
#     Col. 8: Sentence (or sentence MD5).
1566396173,ffda7389b1c57ac9d2a46a3f93d4d8f0,MultiSlider,10,0,EveryNot.All.AllBias,1,<b> All </b> of the kindergartners got on the bus,0.00,100.00,94.50
1566396173,ffda7389b1c57ac9d2a46a3f93d4d8f0,MultiSlider,23,0,EveryNot.All.NoneBias,5,Paula is a dedicated store assistant. A week ago%2C five boxes of new products had arrived at the store. Her manager asked if she had begun opening the boxes.
# The lines below this comment are in groups of 2.
# The formats of the lines in each of these groups are as follows:
#
# Line 1:
#     Col. 1: Time results were received.
#     Col. 2: MD5 hash of participant's IP address.
#     Col. 3: Controller name.
#     Col. 4: Item number.
#     Col. 5: Element number.
#     Col. 6: Type.
#     Col. 7: Group.
#     Col. 8: Sentence (or sentence MD5).
# Line 2:
#     Col. 1: Time results were received.
#     Col. 2: MD5 hash of participant's IP address.
#     Col. 3: Controller name.
#     Col. 4: Item number.
#     Col. 5: Element number.
#     Col. 6: Type.
#     Col. 7: Group.
#     Col. 8: html1.
#     Col. 9: startValue.
#     Col. 10: endValue.
#     Col. 11: value.
1566396173,ffda7389b1c57ac9d2a46a3f93d4d8f0,MultiSlider,23,0,EveryNot.All.NoneBias,5,How likely are the following situations?
1566396173,ffda7389b1c57ac9d2a46a3f93d4d8f0,MultiSlider,23,0,EveryNot.All.NoneBias,5,<b> All </b> of the boxes have been opened,0.00,100.00,98.50
# The lines below this comment are in groups of 2.
# The formats of the lines in each of these groups are as follows:
#
# Line 1:
#     Col. 1: Time results were received.
#     Col. 2: MD5 hash of participant's IP address.
#     Col. 3: Controller name.
#     Col. 4: Item number.
#     Col. 5: Element number.
#     Col. 6: Type.
#     Col. 7: Group.
#     Col. 8: html2.
#     Col. 9: startValue.
#     Col. 10: endValue.
#     Col. 11: value.
# Line 2:
#     Col. 1: Time results were received.
#     Col. 2: MD5 hash of participant's IP address.
#     Col. 3: Controller name.
#     Col. 4: Item number.
#     Col. 5: Element number.
#     Col. 6: Type.
#     Col. 7: Group.
#     Col. 8: html.
#     Col. 9: startValue.
#     Col. 10: endValue.
#     Col. 11: value.
1566396173,ffda7389b1c57ac9d2a46a3f93d4d8f0,MultiSlider,23,0,EveryNot.All.NoneBias,5,<b> None </b> of the boxes have been opened,0.00,100.00,9.83
1566396173,ffda7389b1c57ac9d2a46a3f93d4d8f0,MultiSlider,23,0,EveryNot.All.NoneBias,5,<b> Some but not all </b> of the boxes have been opened,0.00,100.00,36.17
# Columns below this comment are as follows:
# 1. Time results were received.
# 2. MD5 hash of participant's IP address.
# 3. Controller name.
# 4. Item number.
# 5. Element number.
# 6. Type.
# 7. Group.
# 8. Sentence (or sentence MD5).
1566396173,ffda7389b1c57ac9d2a46a3f93d4d8f0,MultiSlider,51,0,EveryNot.Some.HowManyBias,15,Barney has been submitting recipes to a famous cooking website for some time now. His partner asked how successful his submissions had been.
1566396173,ffda7389b1c57ac9d2a46a3f93d4d8f0,MultiSlider,51,0,EveryNot.Some.HowManyBias,15,How likely are the following situations?
# Columns below this comment are as follows:
# 1. Time results were received.
# 2. MD5 hash of participant's IP address.
# 3. Controller name.
# 4. Item number.
# 5. Element number.
# 6. Type.
# 7. Group.
# 8. html1.
# 9. startValue.
# 10. endValue.
# 11. value.
1566396173,ffda7389b1c57ac9d2a46a3f93d4d8f0,MultiSlider,51,0,EveryNot.Some.HowManyBias,15,<b> Some but not all </b> of Barney's submissions have been published,0.00,100.00,71.83
1566396173,ffda7389b1c57ac9d2a46a3f93d4d8f0,MultiSlider,51,0,EveryNot.Some.HowManyBias,15,<b> Some but not all </b> of Barney's submissions have been published,0.00,100.00,81.50
# The lines below this comment are in groups of 2.
# The formats of the lines in each of these groups are as follows:
#
# Line 1:
#     Col. 1: Time results were received.
#     Col. 2: MD5 hash of participant's IP address.
#     Col. 3: Controller name.
#     Col. 4: Item number.
#     Col. 5: Element number.
#     Col. 6: Type.
#     Col. 7: Group.
#     Col. 8: html2.
#     Col. 9: startValue.
#     Col. 10: endValue.
#     Col. 11: value.
# Line 2:
#     Col. 1: Time results were received.
#     Col. 2: MD5 hash of participant's IP address.
#     Col. 3: Controller name.
#     Col. 4: Item number.
#     Col. 5: Element number.
#     Col. 6: Type.
#     Col. 7: Group.
#     Col. 8: html.
#     Col. 9: startValue.
#     Col. 10: endValue.
#     Col. 11: value.
1566396173,ffda7389b1c57ac9d2a46a3f93d4d8f0,MultiSlider,51,0,EveryNot.Some.HowManyBias,15,<b> All </b> of Barney's submissions have been published,0.00,100.00,17.50
1566396173,ffda7389b1c57ac9d2a46a3f93d4d8f0,MultiSlider,51,0,EveryNot.Some.HowManyBias,15,<b> None </b> of Barney's submissions have been published,0.00,100.00,75.17
# Columns below this comment are as follows:
# 1. Time results were received.
# 2. MD5 hash of participant's IP address.
# 3. Controller name.
# 4. Item number.
# 5. Element number.
# 6. Type.
# 7. Group.
# 8. Sentence (or sentence MD5).
1566396173,ffda7389b1c57ac9d2a46a3f93d4d8f0,MultiSlider,14,0,EveryNot.All.NoneBias,2,Erin is a vet. During her last trip%2C she encountered six deer in critical condition%2C and she did the best she could to save even just one life.
1566396173,ffda7389b1c57ac9d2a46a3f93d4d8f0,MultiSlider,14,0,EveryNot.All.NoneBias,2,How likely are the following situations?
# The lines below this comment are in groups of 2.
# The formats of the lines in each of these groups are as follows:
#
# Line 1:
#     Col. 1: Time results were received.
#     Col. 2: MD5 hash of participant's IP address.
#     Col. 3: Controller name.
#     Col. 4: Item number.
#     Col. 5: Element number.
#     Col. 6: Type.
#     Col. 7: Group.
#     Col. 8: html1.
#     Col. 9: startValue.
#     Col. 10: endValue.
#     Col. 11: value.
# Line 2:
#     Col. 1: Time results were received.
#     Col. 2: MD5 hash of participant's IP address.
#     Col. 3: Controller name.
#     Col. 4: Item number.
#     Col. 5: Element number.
#     Col. 6: Type.
#     Col. 7: Group.
#     Col. 8: html2.
#     Col. 9: startValue.
#     Col. 10: endValue.
#     Col. 11: value.
1566396173,ffda7389b1c57ac9d2a46a3f93d4d8f0,MultiSlider,14,0,EveryNot.All.NoneBias,2,<b> All </b> of the six deer survived,0.00,100.00,61.17
1566396173,ffda7389b1c57ac9d2a46a3f93d4d8f0,MultiSlider,14,0,EveryNot.All.NoneBias,2,<b> None </b> of the six deer survived,0.00,100.00,34.17
# The lines below this comment are in groups of 2.
# The formats of the lines in each of these groups are as follows:
#
# Line 1:
#     Col. 1: Time results were received.
#     Col. 2: MD5 hash of participant's IP address.
#     Col. 3: Controller name.
#     Col. 4: Item number.
#     Col. 5: Element number.
#     Col. 6: Type.
#     Col. 7: Group.
#     Col. 8: html.
#     Col. 9: startValue.
#     Col. 10: endValue.
#     Col. 11: value.
# Line 2:
#     Col. 1: Time results were received.
#     Col. 2: MD5 hash of participant's IP address.
#     Col. 3: Controller name.
#     Col. 4: Item number.
#     Col. 5: Element number.
#     Col. 6: Type.
#     Col. 7: Group.
#     Col. 8: Sentence (or sentence MD5).
1566396173,ffda7389b1c57ac9d2a46a3f93d4d8f0,MultiSlider,14,0,EveryNot.All.NoneBias,2,<b> Some but not all </b> of the six deer survived,0.00,100.00,95.50
1566396173,ffda7389b1c57ac9d2a46a3f93d4d8f0,MultiSlider,24,0,EveryNot.All.HowManyBias,6,Eric is a professional producer working on a new album. One day%2C he called the composer  to ask about their progress in demoing the new songs.
# The lines below this comment are in groups of 2.
# The formats of the lines in each of these groups are as follows:
#
# Line 1:
#     Col. 1: Time results were received.
#     Col. 2: MD5 hash of participant's IP address.
#     Col. 3: Controller name.
#     Col. 4: Item number.
#     Col. 5: Element number.
#     Col. 6: Type.
#     Col. 7: Group.
#     Col. 8: Sentence (or sentence MD5).
# Line 2:
#     Col. 1: Time results were received.
#     Col. 2: MD5 hash of participant's IP address.
#     Col. 3: Controller name.
#     Col. 4: Item number.
#     Col. 5: Element number.
#     Col. 6: Type.
#     Col. 7: Group.
#     Col. 8: html1.
#     Col. 9: startValue.
#     Col. 10: endValue.
#     Col. 11: value.
1566396173,ffda7389b1c57ac9d2a46a3f93d4d8f0,MultiSlider,24,0,EveryNot.All.HowManyBias,6,How likely are the following situations?
1566396173,ffda7389b1c57ac9d2a46a3f93d4d8f0,MultiSlider,24,0,EveryNot.All.HowManyBias,6,<b> Some but not all </b> of the new songs have been demoed,0.00,100.00,76.83
# The lines below this comment are in groups of 2.
# The formats of the lines in each of these groups are as follows:
#
# Line 1:
#     Col. 1: Time results were received.
#     Col. 2: MD5 hash of participant's IP address.
#     Col. 3: Controller name.
#     Col. 4: Item number.
#     Col. 5: Element number.
#     Col. 6: Type.
#     Col. 7: Group.
#     Col. 8: html2.
#     Col. 9: startValue.
#     Col. 10: endValue.
#     Col. 11: value.
# Line 2:
#     Col. 1: Time results were received.
#     Col. 2: MD5 hash of participant's IP address.
#     Col. 3: Controller name.
#     Col. 4: Item number.
#     Col. 5: Element number.
#     Col. 6: Type.
#     Col. 7: Group.
#     Col. 8: html.
#     Col. 9: startValue.
#     Col. 10: endValue.
#     Col. 11: value.
1566396173,ffda7389b1c57ac9d2a46a3f93d4d8f0,MultiSlider,24,0,EveryNot.All.HowManyBias,6,<b> All </b> of the new songs have been demoed,0.00,100.00,26.17
1566396173,ffda7389b1c57ac9d2a46a3f93d4d8f0,MultiSlider,24,0,EveryNot.All.HowManyBias,6,<b> None </b> of the new songs have been demoed,0.00,100.00,61.50
# Columns below this comment are as follows:
# 1. Time results were received.
# 2. MD5 hash of participant's IP address.
# 3. Controller name.
# 4. Item number.
# 5. Element number.
# 6. Type.
# 7. Group.
# 8. Sentence (or sentence MD5).
1566396173,ffda7389b1c57ac9d2a46a3f93d4d8f0,MultiSlider,59,0,EveryNot.None.NoneBias,17,Jack is an incompetent homicide detective trying to solve three recent murders. His boss tells him that the newspapers will be all over him if he fails to solve any of these murders.
1566396173,ffda7389b1c57ac9d2a46a3f93d4d8f0,MultiSlider,59,0,EveryNot.None.NoneBias,17,How likely are the following situations?
# The lines below this comment are in groups of 2.
# The formats of the lines in each of these groups are as follows:
#
# Line 1:
#     Col. 1: Time results were received.
#     Col. 2: MD5 hash of participant's IP address.
#     Col. 3: Controller name.
#     Col. 4: Item number.
#     Col. 5: Element number.
#     Col. 6: Type.
#     Col. 7: Group.
#     Col. 8: html1.
#     Col. 9: startValue.
#     Col. 10: endValue.
#     Col. 11: value.
# Line 2:
#     Col. 1: Time results were received.
#     Col. 2: MD5 hash of participant's IP address.
#     Col. 3: Controller name.
#     Col. 4: Item number.
#     Col. 5: Element number.
#     Col. 6: Type.
#     Col. 7: Group.
#     Col. 8: html2.
#     Col. 9: startValue.
#     Col. 10: endValue.
#     Col. 11: value.
1566396173,ffda7389b1c57ac9d2a46a3f93d4d8f0,MultiSlider,59,0,EveryNot.None.NoneBias,17,<b> All </b> of the cases will be solved,0.00,100.00,29.50
1566396173,ffda7389b1c57ac9d2a46a3f93d4d8f0,MultiSlider,59,0,EveryNot.None.NoneBias,17,<b> None </b> of the cases will be solved,0.00,100.00,64.83
# The lines below this comment are in groups of 2.
# The formats of the lines in each of these groups are as follows:
#
# Line 1:
#     Col. 1: Time results were received.
#     Col. 2: MD5 hash of participant's IP address.
#     Col. 3: Controller name.
#     Col. 4: Item number.
#     Col. 5: Element number.
#     Col. 6: Type.
#     Col. 7: Group.
#     Col. 8: html.
#     Col. 9: startValue.
#     Col. 10: endValue.
#     Col. 11: value.
# Line 2:
#     Col. 1: Time results were received.
#     Col. 2: MD5 hash of participant's IP address.
#     Col. 3: Controller name.
#     Col. 4: Item number.
#     Col. 5: Element number.
#     Col. 6: Type.
#     Col. 7: Group.
#     Col. 8: Sentence (or sentence MD5).
1566396173,ffda7389b1c57ac9d2a46a3f93d4d8f0,MultiSlider,59,0,EveryNot.None.NoneBias,17,<b> Some but not all </b> of the cases will be solved,0.00,100.00,67.50
1566396173,ffda7389b1c57ac9d2a46a3f93d4d8f0,MultiSlider,32,0,EveryNot.All.NoneBias,8,A glamorous cocktail event was being held in the Hilton hotel. When guests arrived%2C the receptionist wanted to see if anyone observed the dress code in the invitation.
# The lines below this comment are in groups of 2.
# The formats of the lines in each of these groups are as follows:
#
# Line 1:
#     Col. 1: Time results were received.
#     Col. 2: MD5 hash of participant's IP address.
#     Col. 3: Controller name.
#     Col. 4: Item number.
#     Col. 5: Element number.
#     Col. 6: Type.
#     Col. 7: Group.
#     Col. 8: Sentence (or sentence MD5).
# Line 2:
#     Col. 1: Time results were received.
#     Col. 2: MD5 hash of participant's IP address.
#     Col. 3: Controller name.
#     Col. 4: Item number.
#     Col. 5: Element number.
#     Col. 6: Type.
#     Col. 7: Group.
#     Col. 8: html1.
#     Col. 9: startValue.
#     Col. 10: endValue.
#     Col. 11: value.
1566396173,ffda7389b1c57ac9d2a46a3f93d4d8f0,MultiSlider,32,0,EveryNot.All.NoneBias,8,How likely are the following situations?
1566396173,ffda7389b1c57ac9d2a46a3f93d4d8f0,MultiSlider,32,0,EveryNot.All.NoneBias,8,<b> All </b> of the guests were dressed properly,0.00,100.00,96.50
# The lines below this comment are in groups of 2.
# The formats of the lines in each of these groups are as follows:
#
# Line 1:
#     Col. 1: Time results were received.
#     Col. 2: MD5 hash of participant's IP address.
#     Col. 3: Controller name.
#     Col. 4: Item number.
#     Col. 5: Element number.
#     Col. 6: Type.
#     Col. 7: Group.
#     Col. 8: html2.
#     Col. 9: startValue.
#     Col. 10: endValue.
#     Col. 11: value.
# Line 2:
#     Col. 1: Time results were received.
#     Col. 2: MD5 hash of participant's IP address.
#     Col. 3: Controller name.
#     Col. 4: Item number.
#     Col. 5: Element number.
#     Col. 6: Type.
#     Col. 7: Group.
#     Col. 8: html.
#     Col. 9: startValue.
#     Col. 10: endValue.
#     Col. 11: value.
1566396173,ffda7389b1c57ac9d2a46a3f93d4d8f0,MultiSlider,32,0,EveryNot.All.NoneBias,8,<b> None </b> of the guests were dressed properly,0.00,100.00,4.83
1566396173,ffda7389b1c57ac9d2a46a3f93d4d8f0,MultiSlider,32,0,EveryNot.All.NoneBias,8,<b> Some but not all </b> of the guests were dressed properly,0.00,100.00,60.83
# Columns below this comment are as follows:
# 1. Time results were received.
# 2. MD5 hash of participant's IP address.
# 3. Controller name.
# 4. Item number.
# 5. Element number.
# 6. Type.
# 7. Group.
# 8. Sentence (or sentence MD5).
1566396173,ffda7389b1c57ac9d2a46a3f93d4d8f0,MultiSlider,77,0,EveryNot.None.NoneBias,23,The hospital has the best doctors in the country. One day%2C five patients had to be operated on for fractures in arms and legs. Afterwards%2C a news reporter asked whether any of the patients had been successfully treated.
1566396173,ffda7389b1c57ac9d2a46a3f93d4d8f0,MultiSlider,77,0,EveryNot.None.NoneBias,23,How likely are the following situations?
# Columns below this comment are as follows:
# 1. Time results were received.
# 2. MD5 hash of participant's IP address.
# 3. Controller name.
# 4. Item number.
# 5. Element number.
# 6. Type.
# 7. Group.
# 8. html1.
# 9. startValue.
# 10. endValue.
# 11. value.
1566396173,ffda7389b1c57ac9d2a46a3f93d4d8f0,MultiSlider,77,0,EveryNot.None.NoneBias,23,<b> All </b> of the operations were successful,0.00,100.00,87.50
1566396173,ffda7389b1c57ac9d2a46a3f93d4d8f0,MultiSlider,77,0,EveryNot.None.NoneBias,23,<b> All </b> of the operations were successful,0.00,100.00,95.50
# The lines below this comment are in groups of 2.
# The formats of the lines in each of these groups are as follows:
#
# Line 1:
#     Col. 1: Time results were received.
#     Col. 2: MD5 hash of participant's IP address.
#     Col. 3: Controller name.
#     Col. 4: Item number.
#     Col. 5: Element number.
#     Col. 6: Type.
#     Col. 7: Group.
#     Col. 8: html2.
#     Col. 9: startValue.
#     Col. 10: endValue.
#     Col. 11: value.
# Line 2:
#     Col. 1: Time results were received.
#     Col. 2: MD5 hash of participant's IP address.
#     Col. 3: Controller name.
#     Col. 4: Item number.
#     Col. 5: Element number.
#     Col. 6: Type.
#     Col. 7: Group.
#     Col. 8: html.
#     Col. 9: startValue.
#     Col. 10: endValue.
#     Col. 11: value.
1566396173,ffda7389b1c57ac9d2a46a3f93d4d8f0,MultiSlider,77,0,EveryNot.None.NoneBias,23,<b> None </b> of the operations were successful,0.00,100.00,9.50
1566396173,ffda7389b1c57ac9d2a46a3f93d4d8f0,MultiSlider,77,0,EveryNot.None.NoneBias,23,<b> Some but not all </b> of the operations were successful,0.00,100.00,68.83
# Columns below this comment are as follows:
# 1. Time results were received.
# 2. MD5 hash of participant's IP address.
# 3. Controller name.
# 4. Item number.
# 5. Element number.
# 6. Type.
# 7. Group.
# 8. Sentence (or sentence MD5).
1566396173,ffda7389b1c57ac9d2a46a3f93d4d8f0,MultiSlider,78,0,EveryNot.None.HowManyBias,24,Wayne is a diligent therapist who is always there for his patients. Today%2C he has a minor flu. His assistant asks how many appointments she has to cancel before he can come in.
1566396173,ffda7389b1c57ac9d2a46a3f93d4d8f0,MultiSlider,78,0,EveryNot.None.HowManyBias,24,How likely are the following situations?
# The lines below this comment are in groups of 2.
# The formats of the lines in each of these groups are as follows:
#
# Line 1:
#     Col. 1: Time results were received.
#     Col. 2: MD5 hash of participant's IP address.
#     Col. 3: Controller name.
#     Col. 4: Item number.
#     Col. 5: Element number.
#     Col. 6: Type.
#     Col. 7: Group.
#     Col. 8: html1.
#     Col. 9: startValue.
#     Col. 10: endValue.
#     Col. 11: value.
# Line 2:
#     Col. 1: Time results were received.
#     Col. 2: MD5 hash of participant's IP address.
#     Col. 3: Controller name.
#     Col. 4: Item number.
#     Col. 5: Element number.
#     Col. 6: Type.
#     Col. 7: Group.
#     Col. 8: html2.
#     Col. 9: startValue.
#     Col. 10: endValue.
#     Col. 11: value.
1566396173,ffda7389b1c57ac9d2a46a3f93d4d8f0,MultiSlider,78,0,EveryNot.None.HowManyBias,24,<b> Some but not all </b> of the appointments will be cancelled,0.00,100.00,61.83
1566396173,ffda7389b1c57ac9d2a46a3f93d4d8f0,MultiSlider,78,0,EveryNot.None.HowManyBias,24,<b> All </b> of the appointments will be cancelled,0.00,100.00,3.83
# The lines below this comment are in groups of 2.
# The formats of the lines in each of these groups are as follows:
#
# Line 1:
#     Col. 1: Time results were received.
#     Col. 2: MD5 hash of participant's IP address.
#     Col. 3: Controller name.
#     Col. 4: Item number.
#     Col. 5: Element number.
#     Col. 6: Type.
#     Col. 7: Group.
#     Col. 8: html.
#     Col. 9: startValue.
#     Col. 10: endValue.
#     Col. 11: value.
# Line 2:
#     Col. 1: Time results were received.
#     Col. 2: MD5 hash of participant's IP address.
#     Col. 3: Controller name.
#     Col. 4: Item number.
#     Col. 5: Element number.
#     Col. 6: Type.
#     Col. 7: Group.
#     Col. 8: Sentence (or sentence MD5).
1566396173,ffda7389b1c57ac9d2a46a3f93d4d8f0,MultiSlider,78,0,EveryNot.None.HowManyBias,24,<b> None </b> of the appointments will be cancelled,0.00,100.00,85.50
1566396173,ffda7389b1c57ac9d2a46a3f93d4d8f0,MultiSlider,73,0,EveryNot.None.AllBias,22,The unsuccessful broker has made some risky investments in the stock market. He nervously stared at the monitor%2C because his house may be foreclosed unless all of his investments work out.
# The lines below this comment are in groups of 2.
# The formats of the lines in each of these groups are as follows:
#
# Line 1:
#     Col. 1: Time results were received.
#     Col. 2: MD5 hash of participant's IP address.
#     Col. 3: Controller name.
#     Col. 4: Item number.
#     Col. 5: Element number.
#     Col. 6: Type.
#     Col. 7: Group.
#     Col. 8: Sentence (or sentence MD5).
# Line 2:
#     Col. 1: Time results were received.
#     Col. 2: MD5 hash of participant's IP address.
#     Col. 3: Controller name.
#     Col. 4: Item number.
#     Col. 5: Element number.
#     Col. 6: Type.
#     Col. 7: Group.
#     Col. 8: html1.
#     Col. 9: startValue.
#     Col. 10: endValue.
#     Col. 11: value.
1566396173,ffda7389b1c57ac9d2a46a3f93d4d8f0,MultiSlider,73,0,EveryNot.None.AllBias,22,How likely are the following situations?
1566396173,ffda7389b1c57ac9d2a46a3f93d4d8f0,MultiSlider,73,0,EveryNot.None.AllBias,22,<b> None </b> of the investments paid off,0.00,100.00,41.83
# The lines below this comment are in groups of 2.
# The formats of the lines in each of these groups are as follows:
#
# Line 1:
#     Col. 1: Time results were received.
#     Col. 2: MD5 hash of participant's IP address.
#     Col. 3: Controller name.
#     Col. 4: Item number.
#     Col. 5: Element number.
#     Col. 6: Type.
#     Col. 7: Group.
#     Col. 8: html2.
#     Col. 9: startValue.
#     Col. 10: endValue.
#     Col. 11: value.
# Line 2:
#     Col. 1: Time results were received.
#     Col. 2: MD5 hash of participant's IP address.
#     Col. 3: Controller name.
#     Col. 4: Item number.
#     Col. 5: Element number.
#     Col. 6: Type.
#     Col. 7: Group.
#     Col. 8: html.
#     Col. 9: startValue.
#     Col. 10: endValue.
#     Col. 11: value.
1566396173,ffda7389b1c57ac9d2a46a3f93d4d8f0,MultiSlider,73,0,EveryNot.None.AllBias,22,<b> Some but not all </b> of the investments paid off,0.00,100.00,92.83
1566396173,ffda7389b1c57ac9d2a46a3f93d4d8f0,MultiSlider,73,0,EveryNot.None.AllBias,22,<b> All </b> of the investments paid off,0.00,100.00,29.17
# Columns below this comment are as follows:
# 1. Time results were received.
# 2. MD5 hash of participant's IP address.
# 3. Controller name.
# 4. Item number.
# 5. Element number.
# 6. Type.
# 7. Group.
# 8. Sentence (or sentence MD5).
1566396173,ffda7389b1c57ac9d2a46a3f93d4d8f0,MultiSlider,19,0,EveryNot.All.AllBias,4,The couple has been planning their wedding for next month. The bride asks her future husband if he has finished writing the invitations.
1566396173,ffda7389b1c57ac9d2a46a3f93d4d8f0,MultiSlider,19,0,EveryNot.All.AllBias,4,How likely are the following situations?
# The lines below this comment are in groups of 2.
# The formats of the lines in each of these groups are as follows:
#
# Line 1:
#     Col. 1: Time results were received.
#     Col. 2: MD5 hash of participant's IP address.
#     Col. 3: Controller name.
#     Col. 4: Item number.
#     Col. 5: Element number.
#     Col. 6: Type.
#     Col. 7: Group.
#     Col. 8: html1.
#     Col. 9: startValue.
#     Col. 10: endValue.
#     Col. 11: value.
# Line 2:
#     Col. 1: Time results were received.
#     Col. 2: MD5 hash of participant's IP address.
#     Col. 3: Controller name.
#     Col. 4: Item number.
#     Col. 5: Element number.
#     Col. 6: Type.
#     Col. 7: Group.
#     Col. 8: html2.
#     Col. 9: startValue.
#     Col. 10: endValue.
#     Col. 11: value.
1566396173,ffda7389b1c57ac9d2a46a3f93d4d8f0,MultiSlider,19,0,EveryNot.All.AllBias,4,<b> None </b> of the wedding invitations have been written,0.00,100.00,29.50
1566396173,ffda7389b1c57ac9d2a46a3f93d4d8f0,MultiSlider,19,0,EveryNot.All.AllBias,4,<b> Some but not all </b> of the wedding invitations have been written,0.00,100.00,61.17
# The lines below this comment are in groups of 2.
# The formats of the lines in each of these groups are as follows:
#
# Line 1:
#     Col. 1: Time results were received.
#     Col. 2: MD5 hash of participant's IP address.
#     Col. 3: Controller name.
#     Col. 4: Item number.
#     Col. 5: Element number.
#     Col. 6: Type.
#     Col. 7: Group.
#     Col. 8: html.
#     Col. 9: startValue.
#     Col. 10: endValue.
#     Col. 11: value.
# Line 2:
#     Col. 1: Time results were received.
#     Col. 2: MD5 hash of participant's IP address.
#     Col. 3: Controller name.
#     Col. 4: Item number.
#     Col. 5: Element number.
#     Col. 6: Type.
#     Col. 7: Group.
#     Col. 8: Sentence (or sentence MD5).
1566396173,ffda7389b1c57ac9d2a46a3f93d4d8f0,MultiSlider,19,0,EveryNot.All.AllBias,4,<b> All </b> of the wedding invitations have been written,0.00,100.00,92.17
1566396173,ffda7389b1c57ac9d2a46a3f93d4d8f0,MultiSlider,60,0,EveryNot.None.HowManyBias,18,Paul lives on a sheep farm his parents bought for him%2C but plays video games all day. His parents called him to remind him that his living situation is dependent on the number of sheep he sells.
# The lines below this comment are in groups of 2.
# The formats of the lines in each of these groups are as follows:
#
# Line 1:
#     Col. 1: Time results were received.
#     Col. 2: MD5 hash of participant's IP address.
#     Col. 3: Controller name.
#     Col. 4: Item number.
#     Col. 5: Element number.
#     Col. 6: Type.
#     Col. 7: Group.
#     Col. 8: Sentence (or sentence MD5).
# Line 2:
#     Col. 1: Time results were received.
#     Col. 2: MD5 hash of participant's IP address.
#     Col. 3: Controller name.
#     Col. 4: Item number.
#     Col. 5: Element number.
#     Col. 6: Type.
#     Col. 7: Group.
#     Col. 8: html1.
#     Col. 9: startValue.
#     Col. 10: endValue.
#     Col. 11: value.
1566396173,ffda7389b1c57ac9d2a46a3f93d4d8f0,MultiSlider,60,0,EveryNot.None.HowManyBias,18,How likely are the following situations?
1566396173,ffda7389b1c57ac9d2a46a3f93d4d8f0,MultiSlider,60,0,EveryNot.None.HowManyBias,18,<b> Some but not all </b> of the sheep will be sold,0.00,100.00,70.50
# The lines below this comment are in groups of 2.
# The formats of the lines in each of these groups are as follows:
#
# Line 1:
#     Col. 1: Time results were received.
#     Col. 2: MD5 hash of participant's IP address.
#     Col. 3: Controller name.
#     Col. 4: Item number.
#     Col. 5: Element number.
#     Col. 6: Type.
#     Col. 7: Group.
#     Col. 8: html2.
#     Col. 9: startValue.
#     Col. 10: endValue.
#     Col. 11: value.
# Line 2:
#     Col. 1: Time results were received.
#     Col. 2: MD5 hash of participant's IP address.
#     Col. 3: Controller name.
#     Col. 4: Item number.
#     Col. 5: Element number.
#     Col. 6: Type.
#     Col. 7: Group.
#     Col. 8: html.
#     Col. 9: startValue.
#     Col. 10: endValue.
#     Col. 11: value.
1566396173,ffda7389b1c57ac9d2a46a3f93d4d8f0,MultiSlider,60,0,EveryNot.None.HowManyBias,18,<b> All </b> of the sheep will be sold,0.00,100.00,39.83
1566396173,ffda7389b1c57ac9d2a46a3f93d4d8f0,MultiSlider,60,0,EveryNot.None.HowManyBias,18,<b> None </b> of the sheep will be sold,0.00,100.00,25.50
# Columns below this comment are as follows:
# 1. Time results were received.
# 2. MD5 hash of participant's IP address.
# 3. Controller name.
# 4. Item number.
# 5. Element number.
# 6. Type.
# 7. Group.
# 8. Sentence (or sentence MD5).
1566396173,ffda7389b1c57ac9d2a46a3f93d4d8f0,MultiSlider,46,0,EveryNot.Some.AllBias,13,Lily inherited her mom's huge book collection. When her boyfriend visited%2C he wondered if Lily had already cataloged the entire collection.
1566396173,ffda7389b1c57ac9d2a46a3f93d4d8f0,MultiSlider,46,0,EveryNot.Some.AllBias,13,How likely are the following situations?
# The lines below this comment are in groups of 2.
# The formats of the lines in each of these groups are as follows:
#
# Line 1:
#     Col. 1: Time results were received.
#     Col. 2: MD5 hash of participant's IP address.
#     Col. 3: Controller name.
#     Col. 4: Item number.
#     Col. 5: Element number.
#     Col. 6: Type.
#     Col. 7: Group.
#     Col. 8: html1.
#     Col. 9: startValue.
#     Col. 10: endValue.
#     Col. 11: value.
# Line 2:
#     Col. 1: Time results were received.
#     Col. 2: MD5 hash of participant's IP address.
#     Col. 3: Controller name.
#     Col. 4: Item number.
#     Col. 5: Element number.
#     Col. 6: Type.
#     Col. 7: Group.
#     Col. 8: html2.
#     Col. 9: startValue.
#     Col. 10: endValue.
#     Col. 11: value.
1566396173,ffda7389b1c57ac9d2a46a3f93d4d8f0,MultiSlider,46,0,EveryNot.Some.AllBias,13,<b> None </b> of the books have been cataloged,0.00,100.00,77.17
1566396173,ffda7389b1c57ac9d2a46a3f93d4d8f0,MultiSlider,46,0,EveryNot.Some.AllBias,13,<b> Some but not all </b> of the books have been cataloged,0.00,100.00,60.83
# The lines below this comment are in groups of 2.
# The formats of the lines in each of these groups are as follows:
#
# Line 1:
#     Col. 1: Time results were received.
#     Col. 2: MD5 hash of participant's IP address.
#     Col. 3: Controller name.
#     Col. 4: Item number.
#     Col. 5: Element number.
#     Col. 6: Type.
#     Col. 7: Group.
#     Col. 8: html.
#     Col. 9: startValue.
#     Col. 10: endValue.
#     Col. 11: value.
# Line 2:
#     Col. 1: Time results were received.
#     Col. 2: MD5 hash of participant's IP address.
#     Col. 3: Controller name.
#     Col. 4: Item number.
#     Col. 5: Element number.
#     Col. 6: Type.
#     Col. 7: Group.
#     Col. 8: Sentence (or sentence MD5).
1566396173,ffda7389b1c57ac9d2a46a3f93d4d8f0,MultiSlider,46,0,EveryNot.Some.AllBias,13,<b> All </b> of the books have been cataloged,0.00,100.00,10.50
1566396173,ffda7389b1c57ac9d2a46a3f93d4d8f0,MultiSlider,15,0,EveryNot.All.HowManyBias,3,Rachel is an industrious teaching assistant who has to grade student essays. After a week%2C her boss asks how much progress she's made so far.
# The lines below this comment are in groups of 2.
# The formats of the lines in each of these groups are as follows:
#
# Line 1:
#     Col. 1: Time results were received.
#     Col. 2: MD5 hash of participant's IP address.
#     Col. 3: Controller name.
#     Col. 4: Item number.
#     Col. 5: Element number.
#     Col. 6: Type.
#     Col. 7: Group.
#     Col. 8: Sentence (or sentence MD5).
# Line 2:
#     Col. 1: Time results were received.
#     Col. 2: MD5 hash of participant's IP address.
#     Col. 3: Controller name.
#     Col. 4: Item number.
#     Col. 5: Element number.
#     Col. 6: Type.
#     Col. 7: Group.
#     Col. 8: html1.
#     Col. 9: startValue.
#     Col. 10: endValue.
#     Col. 11: value.
1566396173,ffda7389b1c57ac9d2a46a3f93d4d8f0,MultiSlider,15,0,EveryNot.All.HowManyBias,3,How likely are the following situations?
1566396173,ffda7389b1c57ac9d2a46a3f93d4d8f0,MultiSlider,15,0,EveryNot.All.HowManyBias,3,<b> Some but not all </b> of the student essays were graded,0.00,100.00,65.17
# The lines below this comment are in groups of 2.
# The formats of the lines in each of these groups are as follows:
#
# Line 1:
#     Col. 1: Time results were received.
#     Col. 2: MD5 hash of participant's IP address.
#     Col. 3: Controller name.
#     Col. 4: Item number.
#     Col. 5: Element number.
#     Col. 6: Type.
#     Col. 7: Group.
#     Col. 8: html2.
#     Col. 9: startValue.
#     Col. 10: endValue.
#     Col. 11: value.
# Line 2:
#     Col. 1: Time results were received.
#     Col. 2: MD5 hash of participant's IP address.
#     Col. 3: Controller name.
#     Col. 4: Item number.
#     Col. 5: Element number.
#     Col. 6: Type.
#     Col. 7: Group.
#     Col. 8: html.
#     Col. 9: startValue.
#     Col. 10: endValue.
#     Col. 11: value.
1566396173,ffda7389b1c57ac9d2a46a3f93d4d8f0,MultiSlider,15,0,EveryNot.All.HowManyBias,3,<b> All </b> of the student essays were graded,0.00,100.00,95.17
1566396173,ffda7389b1c57ac9d2a46a3f93d4d8f0,MultiSlider,15,0,EveryNot.All.HowManyBias,3,<b> None </b> of the student essays were graded,0.00,100.00,5.17
# Columns below this comment are as follows:
# 1. Time results were received.
# 2. MD5 hash of participant's IP address.
# 3. Controller name.
# 4. Item number.
# 5. Element number.
# 6. Type.
# 7. Group.
# 8. Sentence (or sentence MD5).
1566396173,ffda7389b1c57ac9d2a46a3f93d4d8f0,MultiSlider,33,0,EveryNot.Some.HowManyBias,9,The teacher has just finished correcting exams. The dean wants an update because the amount of federal funds the school receives depends on the number of students who passed.
1566396173,ffda7389b1c57ac9d2a46a3f93d4d8f0,MultiSlider,33,0,EveryNot.Some.HowManyBias,9,How likely are the following situations?
# The lines below this comment are in groups of 2.
# The formats of the lines in each of these groups are as follows:
#
# Line 1:
#     Col. 1: Time results were received.
#     Col. 2: MD5 hash of participant's IP address.
#     Col. 3: Controller name.
#     Col. 4: Item number.
#     Col. 5: Element number.
#     Col. 6: Type.
#     Col. 7: Group.
#     Col. 8: html1.
#     Col. 9: startValue.
#     Col. 10: endValue.
#     Col. 11: value.
# Line 2:
#     Col. 1: Time results were received.
#     Col. 2: MD5 hash of participant's IP address.
#     Col. 3: Controller name.
#     Col. 4: Item number.
#     Col. 5: Element number.
#     Col. 6: Type.
#     Col. 7: Group.
#     Col. 8: html2.
#     Col. 9: startValue.
#     Col. 10: endValue.
#     Col. 11: value.
1566396173,ffda7389b1c57ac9d2a46a3f93d4d8f0,MultiSlider,33,0,EveryNot.Some.HowManyBias,9,<b> Some but not all </b> of the students passed the exam,0.00,100.00,66.50
1566396173,ffda7389b1c57ac9d2a46a3f93d4d8f0,MultiSlider,33,0,EveryNot.Some.HowManyBias,9,<b> All </b> of the students passed the exam,0.00,100.00,32.83
# The lines below this comment are in groups of 2.
# The formats of the lines in each of these groups are as follows:
#
# Line 1:
#     Col. 1: Time results were received.
#     Col. 2: MD5 hash of participant's IP address.
#     Col. 3: Controller name.
#     Col. 4: Item number.
#     Col. 5: Element number.
#     Col. 6: Type.
#     Col. 7: Group.
#     Col. 8: html.
#     Col. 9: startValue.
#     Col. 10: endValue.
#     Col. 11: value.
# Line 2:
#     Col. 1: Time results were received.
#     Col. 2: MD5 hash of participant's IP address.
#     Col. 3: Controller name.
#     Col. 4: Item number.
#     Col. 5: Element number.
#     Col. 6: Type.
#     Col. 7: Group.
#     Col. 8: Sentence (or sentence MD5).
1566396173,ffda7389b1c57ac9d2a46a3f93d4d8f0,MultiSlider,33,0,EveryNot.Some.HowManyBias,9,<b> None </b> of the students passed the exam,0.00,100.00,13.17
1566396173,ffda7389b1c57ac9d2a46a3f93d4d8f0,MultiSlider,41,0,EveryNot.Some.NoneBias,11,The local community organized a flea market last weekend. The sellers  all hoped that they could close even just one sale they dealt with.
# The lines below this comment are in groups of 2.
# The formats of the lines in each of these groups are as follows:
#
# Line 1:
#     Col. 1: Time results were received.
#     Col. 2: MD5 hash of participant's IP address.
#     Col. 3: Controller name.
#     Col. 4: Item number.
#     Col. 5: Element number.
#     Col. 6: Type.
#     Col. 7: Group.
#     Col. 8: Sentence (or sentence MD5).
# Line 2:
#     Col. 1: Time results were received.
#     Col. 2: MD5 hash of participant's IP address.
#     Col. 3: Controller name.
#     Col. 4: Item number.
#     Col. 5: Element number.
#     Col. 6: Type.
#     Col. 7: Group.
#     Col. 8: html1.
#     Col. 9: startValue.
#     Col. 10: endValue.
#     Col. 11: value.
1566396173,ffda7389b1c57ac9d2a46a3f93d4d8f0,MultiSlider,41,0,EveryNot.Some.NoneBias,11,How likely are the following situations?
1566396173,ffda7389b1c57ac9d2a46a3f93d4d8f0,MultiSlider,41,0,EveryNot.Some.NoneBias,11,<b> All </b> of the sales were closed in the end,0.00,100.00,23.50
# The lines below this comment are in groups of 2.
# The formats of the lines in each of these groups are as follows:
#
# Line 1:
#     Col. 1: Time results were received.
#     Col. 2: MD5 hash of participant's IP address.
#     Col. 3: Controller name.
#     Col. 4: Item number.
#     Col. 5: Element number.
#     Col. 6: Type.
#     Col. 7: Group.
#     Col. 8: html2.
#     Col. 9: startValue.
#     Col. 10: endValue.
#     Col. 11: value.
# Line 2:
#     Col. 1: Time results were received.
#     Col. 2: MD5 hash of participant's IP address.
#     Col. 3: Controller name.
#     Col. 4: Item number.
#     Col. 5: Element number.
#     Col. 6: Type.
#     Col. 7: Group.
#     Col. 8: html.
#     Col. 9: startValue.
#     Col. 10: endValue.
#     Col. 11: value.
1566396173,ffda7389b1c57ac9d2a46a3f93d4d8f0,MultiSlider,41,0,EveryNot.Some.NoneBias,11,<b> None </b> of the sales were closed in the end,0.00,100.00,23.17
1566396173,ffda7389b1c57ac9d2a46a3f93d4d8f0,MultiSlider,41,0,EveryNot.Some.NoneBias,11,<b> Some but not all </b> of the sales were closed in the end,0.00,100.00,86.17
# Columns below this comment are as follows:
# 1. Time results were received.
# 2. MD5 hash of participant's IP address.
# 3. Controller name.
# 4. Item number.
# 5. Element number.
# 6. Type.
# 7. Group.
# 8. Sentence (or sentence MD5).
1566396173,ffda7389b1c57ac9d2a46a3f93d4d8f0,MultiSlider,64,0,EveryNot.None.AllBias,19,Bill is an average runner who tried to break five Guinness records of running. At the day of the challenge%2C he swore that he was going to get all the records under his belt.
1566396173,ffda7389b1c57ac9d2a46a3f93d4d8f0,MultiSlider,64,0,EveryNot.None.AllBias,19,How likely are the following situations?
# The lines below this comment are in groups of 2.
# The formats of the lines in each of these groups are as follows:
#
# Line 1:
#     Col. 1: Time results were received.
#     Col. 2: MD5 hash of participant's IP address.
#     Col. 3: Controller name.
#     Col. 4: Item number.
#     Col. 5: Element number.
#     Col. 6: Type.
#     Col. 7: Group.
#     Col. 8: html1.
#     Col. 9: startValue.
#     Col. 10: endValue.
#     Col. 11: value.
# Line 2:
#     Col. 1: Time results were received.
#     Col. 2: MD5 hash of participant's IP address.
#     Col. 3: Controller name.
#     Col. 4: Item number.
#     Col. 5: Element number.
#     Col. 6: Type.
#     Col. 7: Group.
#     Col. 8: html2.
#     Col. 9: startValue.
#     Col. 10: endValue.
#     Col. 11: value.
1566396173,ffda7389b1c57ac9d2a46a3f93d4d8f0,MultiSlider,64,0,EveryNot.None.AllBias,19,<b> None </b> of the records were broken in the end,0.00,100.00,5.50
1566396173,ffda7389b1c57ac9d2a46a3f93d4d8f0,MultiSlider,64,0,EveryNot.None.AllBias,19,<b> Some but not all </b> of the records were broken in the end,0.00,100.00,88.17
# The lines below this comment are in groups of 2.
# The formats of the lines in each of these groups are as follows:
#
# Line 1:
#     Col. 1: Time results were received.
#     Col. 2: MD5 hash of participant's IP address.
#     Col. 3: Controller name.
#     Col. 4: Item number.
#     Col. 5: Element number.
#     Col. 6: Type.
#     Col. 7: Group.
#     Col. 8: html.
#     Col. 9: startValue.
#     Col. 10: endValue.
#     Col. 11: value.
# Line 2:
#     Col. 1: Time results were received.
#     Col. 2: MD5 hash of participant's IP address.
#     Col. 3: Controller name.
#     Col. 4: Item number.
#     Col. 5: Element number.
#     Col. 6: Type.
#     Col. 7: Group.
#     Col. 8: Sentence (or sentence MD5).
1566396173,ffda7389b1c57ac9d2a46a3f93d4d8f0,MultiSlider,64,0,EveryNot.None.AllBias,19,<b> All </b> of the records were broken in the end,0.00,100.00,61.50
1566396173,ffda7389b1c57ac9d2a46a3f93d4d8f0,MultiSlider,50,0,EveryNot.Some.NoneBias,14,Roy recently started a career as a professional gamer. A journalist interviewed him%2C and asked if he had already been invited to any of the five Major League Gaming tournaments.
# The lines below this comment are in groups of 2.
# The formats of the lines in each of these groups are as follows:
#
# Line 1:
#     Col. 1: Time results were received.
#     Col. 2: MD5 hash of participant's IP address.
#     Col. 3: Controller name.
#     Col. 4: Item number.
#     Col. 5: Element number.
#     Col. 6: Type.
#     Col. 7: Group.
#     Col. 8: Sentence (or sentence MD5).
# Line 2:
#     Col. 1: Time results were received.
#     Col. 2: MD5 hash of participant's IP address.
#     Col. 3: Controller name.
#     Col. 4: Item number.
#     Col. 5: Element number.
#     Col. 6: Type.
#     Col. 7: Group.
#     Col. 8: html1.
#     Col. 9: startValue.
#     Col. 10: endValue.
#     Col. 11: value.
1566396173,ffda7389b1c57ac9d2a46a3f93d4d8f0,MultiSlider,50,0,EveryNot.Some.NoneBias,14,How likely are the following situations?
1566396173,ffda7389b1c57ac9d2a46a3f93d4d8f0,MultiSlider,50,0,EveryNot.Some.NoneBias,14, Roy has been invited to<b> all of </b>the Major League Gaming tournaments,0.00,100.00,32.17
# The lines below this comment are in groups of 2.
# The formats of the lines in each of these groups are as follows:
#
# Line 1:
#     Col. 1: Time results were received.
#     Col. 2: MD5 hash of participant's IP address.
#     Col. 3: Controller name.
#     Col. 4: Item number.
#     Col. 5: Element number.
#     Col. 6: Type.
#     Col. 7: Group.
#     Col. 8: html2.
#     Col. 9: startValue.
#     Col. 10: endValue.
#     Col. 11: value.
# Line 2:
#     Col. 1: Time results were received.
#     Col. 2: MD5 hash of participant's IP address.
#     Col. 3: Controller name.
#     Col. 4: Item number.
#     Col. 5: Element number.
#     Col. 6: Type.
#     Col. 7: Group.
#     Col. 8: html.
#     Col. 9: startValue.
#     Col. 10: endValue.
#     Col. 11: value.
1566396173,ffda7389b1c57ac9d2a46a3f93d4d8f0,MultiSlider,50,0,EveryNot.Some.NoneBias,14, Roy hasn't been invited to<b> any of </b>the Major League Gaming tournaments,0.00,100.00,31.17
1566396173,ffda7389b1c57ac9d2a46a3f93d4d8f0,MultiSlider,50,0,EveryNot.Some.NoneBias,14, Roy has been invited to<b> some but not all of </b>the Major League Gaming tournaments,0.00,100.00,72.17
# Columns below this comment are as follows:
# 1. Time results were received.
# 2. MD5 hash of participant's IP address.
# 3. Controller name.
# 4. Item number.
# 5. Element number.
# 6. Type.
# 7. Group.
# 8. Sentence (or sentence MD5).
1566396173,ffda7389b1c57ac9d2a46a3f93d4d8f0,MultiSlider,68,0,EveryNot.None.NoneBias,20,Helena is a mediocre athlete who made a resolution to win three Olympic medals this year. Her coach thought that she would be honored if she could win even a single medal.
1566396173,ffda7389b1c57ac9d2a46a3f93d4d8f0,MultiSlider,68,0,EveryNot.None.NoneBias,20,How likely are the following situations?
# The lines below this comment are in groups of 2.
# The formats of the lines in each of these groups are as follows:
#
# Line 1:
#     Col. 1: Time results were received.
#     Col. 2: MD5 hash of participant's IP address.
#     Col. 3: Controller name.
#     Col. 4: Item number.
#     Col. 5: Element number.
#     Col. 6: Type.
#     Col. 7: Group.
#     Col. 8: html1.
#     Col. 9: startValue.
#     Col. 10: endValue.
#     Col. 11: value.
# Line 2:
#     Col. 1: Time results were received.
#     Col. 2: MD5 hash of participant's IP address.
#     Col. 3: Controller name.
#     Col. 4: Item number.
#     Col. 5: Element number.
#     Col. 6: Type.
#     Col. 7: Group.
#     Col. 8: html2.
#     Col. 9: startValue.
#     Col. 10: endValue.
#     Col. 11: value.
1566396173,ffda7389b1c57ac9d2a46a3f93d4d8f0,MultiSlider,68,0,EveryNot.None.NoneBias,20, She won<b> all of </b>the medals,0.00,100.00,7.17
1566396173,ffda7389b1c57ac9d2a46a3f93d4d8f0,MultiSlider,68,0,EveryNot.None.NoneBias,20, She didn't win<b> any of </b>the medals,0.00,100.00,84.83
# The lines below this comment are in groups of 2.
# The formats of the lines in each of these groups are as follows:
#
# Line 1:
#     Col. 1: Time results were received.
#     Col. 2: MD5 hash of participant's IP address.
#     Col. 3: Controller name.
#     Col. 4: Item number.
#     Col. 5: Element number.
#     Col. 6: Type.
#     Col. 7: Group.
#     Col. 8: html2.
#     Col. 9: startValue.
#     Col. 10: endValue.
#     Col. 11: value.
# Line 2:
#     Col. 1: Time results were received.
#     Col. 2: MD5 hash of participant's IP address.
#     Col. 3: Controller name.
#     Col. 4: Item number.
#     Col. 5: Element number.
#     Col. 6: Type.
#     Col. 7: Group.
#     Col. 8: html.
#     Col. 9: startValue.
#     Col. 10: endValue.
#     Col. 11: value.
1566396173,ffda7389b1c57ac9d2a46a3f93d4d8f0,MultiSlider,68,0,EveryNot.None.NoneBias,20, She didn't win<b> any of </b>the medals,0.00,100.00,93.17
1566396173,ffda7389b1c57ac9d2a46a3f93d4d8f0,MultiSlider,68,0,EveryNot.None.NoneBias,20, She won<b> some but not all of </b>the medals,0.00,100.00,33.50
# Columns below this comment are as follows:
# 1. Time results were received.
# 2. MD5 hash of participant's IP address.
# 3. Controller name.
# 4. Item number.
# 5. Element number.
# 6. Type.
# 7. Group.
# 8. Field name.
# 9. Field value.
1566396173,ffda7389b1c57ac9d2a46a3f93d4d8f0,Form,8,0,end_experiment,NULL,_REACTION_TIME_,2169
#
# Results on Wednesday August 21 2019 14:13:23 UTC.
# USER AGENT: Mozilla/5.0 (Windows NT 10.0; Win64; x64) AppleWebKit/537.36 (KHTML, like Gecko) Chrome/76.0.3809.100 Safari/537.36
# Design number was non-random = 3
#
# Columns below this comment are as follows:
# 1. Time results were received.
# 2. MD5 hash of participant's IP address.
# 3. Controller name.
# 4. Item number.
# 5. Element number.
# 6. Type.
# 7. Group.
# 8. Field name.
# 9. Field value.
1566396804,520e00691fd77f2452ced07f9d9702c8,Form,7,0,consent,NULL,consent,yes
1566396804,520e00691fd77f2452ced07f9d9702c8,Form,7,0,consent,NULL,_REACTION_TIME_,68522
1566396804,520e00691fd77f2452ced07f9d9702c8,Form,1,0,intro,NULL,age,33
1566396804,520e00691fd77f2452ced07f9d9702c8,Form,1,0,intro,NULL,natlang,English
1566396804,520e00691fd77f2452ced07f9d9702c8,Form,1,0,intro,NULL,otherlang,Yes: Taiwanese
1566396804,520e00691fd77f2452ced07f9d9702c8,Form,1,0,intro,NULL,Prolific,5d545ca7f3419700170ad579
1566396804,520e00691fd77f2452ced07f9d9702c8,Form,1,0,intro,NULL,gender,female
1566396804,520e00691fd77f2452ced07f9d9702c8,Form,1,0,intro,NULL,_REACTION_TIME_,33081
1566396804,520e00691fd77f2452ced07f9d9702c8,Form,2,0,intro1,NULL,_REACTION_TIME_,7107
1566396804,520e00691fd77f2452ced07f9d9702c8,Form,3,0,intro2,NULL,_REACTION_TIME_,15968
1566396804,520e00691fd77f2452ced07f9d9702c8,Form,4,0,intro3,NULL,_REACTION_TIME_,22744
# Columns below this comment are as follows:
# 1. Time results were received.
# 2. MD5 hash of participant's IP address.
# 3. Controller name.
# 4. Item number.
# 5. Element number.
# 6. Type.
# 7. Group.
# 8. Sentence (or sentence MD5).
1566396804,520e00691fd77f2452ced07f9d9702c8,MultiSlider,31,0,EveryNot.All.AllBias,8,A glamorous cocktail event was being held in the Hilton hotel. When guests arrived%2C the receptionist checked to make sure everyone had observed the dress code.
1566396804,520e00691fd77f2452ced07f9d9702c8,MultiSlider,31,0,EveryNot.All.AllBias,8,How likely are the following situations?
# Columns below this comment are as follows:
# 1. Time results were received.
# 2. MD5 hash of participant's IP address.
# 3. Controller name.
# 4. Item number.
# 5. Element number.
# 6. Type.
# 7. Group.
# 8. html1.
# 9. startValue.
# 10. endValue.
# 11. value.
1566396804,520e00691fd77f2452ced07f9d9702c8,MultiSlider,31,0,EveryNot.All.AllBias,8,<b> All </b> of the guests were dressed properly,0.00,100.00,22.17
1566396804,520e00691fd77f2452ced07f9d9702c8,MultiSlider,31,0,EveryNot.All.AllBias,8,<b> All </b> of the guests were dressed properly,0.00,100.00,34.50
1566396804,520e00691fd77f2452ced07f9d9702c8,MultiSlider,31,0,EveryNot.All.AllBias,8,<b> All </b> of the guests were dressed properly,0.00,100.00,41.50
1566396804,520e00691fd77f2452ced07f9d9702c8,MultiSlider,31,0,EveryNot.All.AllBias,8,<b> All </b> of the guests were dressed properly,0.00,100.00,51.83
1566396804,520e00691fd77f2452ced07f9d9702c8,MultiSlider,31,0,EveryNot.All.AllBias,8,<b> All </b> of the guests were dressed properly,0.00,100.00,58.83
1566396804,520e00691fd77f2452ced07f9d9702c8,MultiSlider,31,0,EveryNot.All.AllBias,8,<b> All </b> of the guests were dressed properly,0.00,100.00,71.50
# The lines below this comment are in groups of 2.
# The formats of the lines in each of these groups are as follows:
#
# Line 1:
#     Col. 1: Time results were received.
#     Col. 2: MD5 hash of participant's IP address.
#     Col. 3: Controller name.
#     Col. 4: Item number.
#     Col. 5: Element number.
#     Col. 6: Type.
#     Col. 7: Group.
#     Col. 8: html2.
#     Col. 9: startValue.
#     Col. 10: endValue.
#     Col. 11: value.
# Line 2:
#     Col. 1: Time results were received.
#     Col. 2: MD5 hash of participant's IP address.
#     Col. 3: Controller name.
#     Col. 4: Item number.
#     Col. 5: Element number.
#     Col. 6: Type.
#     Col. 7: Group.
#     Col. 8: html.
#     Col. 9: startValue.
#     Col. 10: endValue.
#     Col. 11: value.
1566396804,520e00691fd77f2452ced07f9d9702c8,MultiSlider,31,0,EveryNot.All.AllBias,8,<b> None </b> of the guests were dressed properly,0.00,100.00,1.83
1566396804,520e00691fd77f2452ced07f9d9702c8,MultiSlider,31,0,EveryNot.All.AllBias,8,<b> Some but not all </b> of the guests were dressed properly,0.00,100.00,95.50
# Columns below this comment are as follows:
# 1. Time results were received.
# 2. MD5 hash of participant's IP address.
# 3. Controller name.
# 4. Item number.
# 5. Element number.
# 6. Type.
# 7. Group.
# 8. Sentence (or sentence MD5).
1566396804,520e00691fd77f2452ced07f9d9702c8,MultiSlider,63,0,EveryNot.None.HowManyBias,19,Bill is an average runner who tried to break five Guinness records of running. At the day of the challenge%2C he tried hard to break as many records as he could.
1566396804,520e00691fd77f2452ced07f9d9702c8,MultiSlider,63,0,EveryNot.None.HowManyBias,19,How likely are the following situations?
# The lines below this comment are in groups of 2.
# The formats of the lines in each of these groups are as follows:
#
# Line 1:
#     Col. 1: Time results were received.
#     Col. 2: MD5 hash of participant's IP address.
#     Col. 3: Controller name.
#     Col. 4: Item number.
#     Col. 5: Element number.
#     Col. 6: Type.
#     Col. 7: Group.
#     Col. 8: html1.
#     Col. 9: startValue.
#     Col. 10: endValue.
#     Col. 11: value.
# Line 2:
#     Col. 1: Time results were received.
#     Col. 2: MD5 hash of participant's IP address.
#     Col. 3: Controller name.
#     Col. 4: Item number.
#     Col. 5: Element number.
#     Col. 6: Type.
#     Col. 7: Group.
#     Col. 8: html2.
#     Col. 9: startValue.
#     Col. 10: endValue.
#     Col. 11: value.
1566396804,520e00691fd77f2452ced07f9d9702c8,MultiSlider,63,0,EveryNot.None.HowManyBias,19,<b> None </b> of the records were broken in the end,0.00,100.00,94.83
1566396804,520e00691fd77f2452ced07f9d9702c8,MultiSlider,63,0,EveryNot.None.HowManyBias,19,<b> Some but not all </b> of the records were broken in the end,0.00,100.00,1.17
# The lines below this comment are in groups of 2.
# The formats of the lines in each of these groups are as follows:
#
# Line 1:
#     Col. 1: Time results were received.
#     Col. 2: MD5 hash of participant's IP address.
#     Col. 3: Controller name.
#     Col. 4: Item number.
#     Col. 5: Element number.
#     Col. 6: Type.
#     Col. 7: Group.
#     Col. 8: html.
#     Col. 9: startValue.
#     Col. 10: endValue.
#     Col. 11: value.
# Line 2:
#     Col. 1: Time results were received.
#     Col. 2: MD5 hash of participant's IP address.
#     Col. 3: Controller name.
#     Col. 4: Item number.
#     Col. 5: Element number.
#     Col. 6: Type.
#     Col. 7: Group.
#     Col. 8: Sentence (or sentence MD5).
1566396804,520e00691fd77f2452ced07f9d9702c8,MultiSlider,63,0,EveryNot.None.HowManyBias,19,<b> All </b> of the records were broken in the end,0.00,100.00,0.00
1566396804,520e00691fd77f2452ced07f9d9702c8,MultiSlider,9,0,EveryNot.All.HowManyBias,1,The whole kindergarten was going on a field trip. The teacher did a head count to see how many children had been seated on the bus.
# The lines below this comment are in groups of 2.
# The formats of the lines in each of these groups are as follows:
#
# Line 1:
#     Col. 1: Time results were received.
#     Col. 2: MD5 hash of participant's IP address.
#     Col. 3: Controller name.
#     Col. 4: Item number.
#     Col. 5: Element number.
#     Col. 6: Type.
#     Col. 7: Group.
#     Col. 8: Sentence (or sentence MD5).
# Line 2:
#     Col. 1: Time results were received.
#     Col. 2: MD5 hash of participant's IP address.
#     Col. 3: Controller name.
#     Col. 4: Item number.
#     Col. 5: Element number.
#     Col. 6: Type.
#     Col. 7: Group.
#     Col. 8: html1.
#     Col. 9: startValue.
#     Col. 10: endValue.
#     Col. 11: value.
1566396804,520e00691fd77f2452ced07f9d9702c8,MultiSlider,9,0,EveryNot.All.HowManyBias,1,How likely are the following situations?
1566396804,520e00691fd77f2452ced07f9d9702c8,MultiSlider,9,0,EveryNot.All.HowManyBias,1,<b> None </b> of the kindergartners got on the bus,0.00,100.00,2.17
# The lines below this comment are in groups of 2.
# The formats of the lines in each of these groups are as follows:
#
# Line 1:
#     Col. 1: Time results were received.
#     Col. 2: MD5 hash of participant's IP address.
#     Col. 3: Controller name.
#     Col. 4: Item number.
#     Col. 5: Element number.
#     Col. 6: Type.
#     Col. 7: Group.
#     Col. 8: html2.
#     Col. 9: startValue.
#     Col. 10: endValue.
#     Col. 11: value.
# Line 2:
#     Col. 1: Time results were received.
#     Col. 2: MD5 hash of participant's IP address.
#     Col. 3: Controller name.
#     Col. 4: Item number.
#     Col. 5: Element number.
#     Col. 6: Type.
#     Col. 7: Group.
#     Col. 8: html.
#     Col. 9: startValue.
#     Col. 10: endValue.
#     Col. 11: value.
1566396804,520e00691fd77f2452ced07f9d9702c8,MultiSlider,9,0,EveryNot.All.HowManyBias,1,<b> Some but not all </b> of the kindergartners got on the bus,0.00,100.00,1.50
1566396804,520e00691fd77f2452ced07f9d9702c8,MultiSlider,9,0,EveryNot.All.HowManyBias,1,<b> All </b> of the kindergartners got on the bus,0.00,100.00,98.17
# Columns below this comment are as follows:
# 1. Time results were received.
# 2. MD5 hash of participant's IP address.
# 3. Controller name.
# 4. Item number.
# 5. Element number.
# 6. Type.
# 7. Group.
# 8. Sentence (or sentence MD5).
1566396804,520e00691fd77f2452ced07f9d9702c8,MultiSlider,53,0,EveryNot.Some.NoneBias,15,Barney has been submitting recipes to a famous cooking website for some time now. His partner asked whether any of his submissions had even been posted on the website.
1566396804,520e00691fd77f2452ced07f9d9702c8,MultiSlider,53,0,EveryNot.Some.NoneBias,15,How likely are the following situations?
# The lines below this comment are in groups of 2.
# The formats of the lines in each of these groups are as follows:
#
# Line 1:
#     Col. 1: Time results were received.
#     Col. 2: MD5 hash of participant's IP address.
#     Col. 3: Controller name.
#     Col. 4: Item number.
#     Col. 5: Element number.
#     Col. 6: Type.
#     Col. 7: Group.
#     Col. 8: html1.
#     Col. 9: startValue.
#     Col. 10: endValue.
#     Col. 11: value.
# Line 2:
#     Col. 1: Time results were received.
#     Col. 2: MD5 hash of participant's IP address.
#     Col. 3: Controller name.
#     Col. 4: Item number.
#     Col. 5: Element number.
#     Col. 6: Type.
#     Col. 7: Group.
#     Col. 8: html2.
#     Col. 9: startValue.
#     Col. 10: endValue.
#     Col. 11: value.
1566396804,520e00691fd77f2452ced07f9d9702c8,MultiSlider,53,0,EveryNot.Some.NoneBias,15,<b> Some but not all </b> of Barney's submissions have been published,0.00,100.00,27.83
1566396804,520e00691fd77f2452ced07f9d9702c8,MultiSlider,53,0,EveryNot.Some.NoneBias,15,<b> All </b> of Barney's submissions have been published,0.00,100.00,4.17
# The lines below this comment are in groups of 2.
# The formats of the lines in each of these groups are as follows:
#
# Line 1:
#     Col. 1: Time results were received.
#     Col. 2: MD5 hash of participant's IP address.
#     Col. 3: Controller name.
#     Col. 4: Item number.
#     Col. 5: Element number.
#     Col. 6: Type.
#     Col. 7: Group.
#     Col. 8: html.
#     Col. 9: startValue.
#     Col. 10: endValue.
#     Col. 11: value.
# Line 2:
#     Col. 1: Time results were received.
#     Col. 2: MD5 hash of participant's IP address.
#     Col. 3: Controller name.
#     Col. 4: Item number.
#     Col. 5: Element number.
#     Col. 6: Type.
#     Col. 7: Group.
#     Col. 8: Sentence (or sentence MD5).
1566396804,520e00691fd77f2452ced07f9d9702c8,MultiSlider,53,0,EveryNot.Some.NoneBias,15,<b> None </b> of Barney's submissions have been published,0.00,100.00,27.83
1566396804,520e00691fd77f2452ced07f9d9702c8,MultiSlider,80,0,EveryNot.None.NoneBias,24,Wayne is a diligent therapist who is always there for his patients. Today%2C he has a minor flu. His assistant asks if she has to cancel any of his appointments.
# The lines below this comment are in groups of 2.
# The formats of the lines in each of these groups are as follows:
#
# Line 1:
#     Col. 1: Time results were received.
#     Col. 2: MD5 hash of participant's IP address.
#     Col. 3: Controller name.
#     Col. 4: Item number.
#     Col. 5: Element number.
#     Col. 6: Type.
#     Col. 7: Group.
#     Col. 8: Sentence (or sentence MD5).
# Line 2:
#     Col. 1: Time results were received.
#     Col. 2: MD5 hash of participant's IP address.
#     Col. 3: Controller name.
#     Col. 4: Item number.
#     Col. 5: Element number.
#     Col. 6: Type.
#     Col. 7: Group.
#     Col. 8: html1.
#     Col. 9: startValue.
#     Col. 10: endValue.
#     Col. 11: value.
1566396804,520e00691fd77f2452ced07f9d9702c8,MultiSlider,80,0,EveryNot.None.NoneBias,24,How likely are the following situations?
1566396804,520e00691fd77f2452ced07f9d9702c8,MultiSlider,80,0,EveryNot.None.NoneBias,24,<b> Some but not all </b> of the appointments will be cancelled,0.00,100.00,89.17
# Columns below this comment are as follows:
# 1. Time results were received.
# 2. MD5 hash of participant's IP address.
# 3. Controller name.
# 4. Item number.
# 5. Element number.
# 6. Type.
# 7. Group.
# 8. html1.
# 9. startValue.
# 10. endValue.
# 11. value.
1566396804,520e00691fd77f2452ced07f9d9702c8,MultiSlider,80,0,EveryNot.None.NoneBias,24,<b> Some but not all </b> of the appointments will be cancelled,0.00,100.00,80.17
1566396804,520e00691fd77f2452ced07f9d9702c8,MultiSlider,80,0,EveryNot.None.NoneBias,24,<b> Some but not all </b> of the appointments will be cancelled,0.00,100.00,99.17
# The lines below this comment are in groups of 2.
# The formats of the lines in each of these groups are as follows:
#
# Line 1:
#     Col. 1: Time results were received.
#     Col. 2: MD5 hash of participant's IP address.
#     Col. 3: Controller name.
#     Col. 4: Item number.
#     Col. 5: Element number.
#     Col. 6: Type.
#     Col. 7: Group.
#     Col. 8: html2.
#     Col. 9: startValue.
#     Col. 10: endValue.
#     Col. 11: value.
# Line 2:
#     Col. 1: Time results were received.
#     Col. 2: MD5 hash of participant's IP address.
#     Col. 3: Controller name.
#     Col. 4: Item number.
#     Col. 5: Element number.
#     Col. 6: Type.
#     Col. 7: Group.
#     Col. 8: html.
#     Col. 9: startValue.
#     Col. 10: endValue.
#     Col. 11: value.
1566396804,520e00691fd77f2452ced07f9d9702c8,MultiSlider,80,0,EveryNot.None.NoneBias,24,<b> All </b> of the appointments will be cancelled,0.00,100.00,4.50
1566396804,520e00691fd77f2452ced07f9d9702c8,MultiSlider,80,0,EveryNot.None.NoneBias,24,<b> None </b> of the appointments will be cancelled,0.00,100.00,19.17
# Columns below this comment are as follows:
# 1. Time results were received.
# 2. MD5 hash of participant's IP address.
# 3. Controller name.
# 4. Item number.
# 5. Element number.
# 6. Type.
# 7. Group.
# 8. Sentence (or sentence MD5).
1566396804,520e00691fd77f2452ced07f9d9702c8,MultiSlider,72,0,EveryNot.None.HowManyBias,22,The unsuccessful broker has made some risky investments in the stock market. He nervously stared at the monitor%2C because whether he can pay for the mortgage depends on the number of the investments that work out.
1566396804,520e00691fd77f2452ced07f9d9702c8,MultiSlider,72,0,EveryNot.None.HowManyBias,22,How likely are the following situations?
# The lines below this comment are in groups of 2.
# The formats of the lines in each of these groups are as follows:
#
# Line 1:
#     Col. 1: Time results were received.
#     Col. 2: MD5 hash of participant's IP address.
#     Col. 3: Controller name.
#     Col. 4: Item number.
#     Col. 5: Element number.
#     Col. 6: Type.
#     Col. 7: Group.
#     Col. 8: html1.
#     Col. 9: startValue.
#     Col. 10: endValue.
#     Col. 11: value.
# Line 2:
#     Col. 1: Time results were received.
#     Col. 2: MD5 hash of participant's IP address.
#     Col. 3: Controller name.
#     Col. 4: Item number.
#     Col. 5: Element number.
#     Col. 6: Type.
#     Col. 7: Group.
#     Col. 8: html2.
#     Col. 9: startValue.
#     Col. 10: endValue.
#     Col. 11: value.
1566396804,520e00691fd77f2452ced07f9d9702c8,MultiSlider,72,0,EveryNot.None.HowManyBias,22,<b> None </b> of the investments paid off,0.00,100.00,13.17
1566396804,520e00691fd77f2452ced07f9d9702c8,MultiSlider,72,0,EveryNot.None.HowManyBias,22,<b> Some but not all </b> of the investments paid off,0.00,100.00,98.17
# The lines below this comment are in groups of 2.
# The formats of the lines in each of these groups are as follows:
#
# Line 1:
#     Col. 1: Time results were received.
#     Col. 2: MD5 hash of participant's IP address.
#     Col. 3: Controller name.
#     Col. 4: Item number.
#     Col. 5: Element number.
#     Col. 6: Type.
#     Col. 7: Group.
#     Col. 8: html.
#     Col. 9: startValue.
#     Col. 10: endValue.
#     Col. 11: value.
# Line 2:
#     Col. 1: Time results were received.
#     Col. 2: MD5 hash of participant's IP address.
#     Col. 3: Controller name.
#     Col. 4: Item number.
#     Col. 5: Element number.
#     Col. 6: Type.
#     Col. 7: Group.
#     Col. 8: Sentence (or sentence MD5).
1566396804,520e00691fd77f2452ced07f9d9702c8,MultiSlider,72,0,EveryNot.None.HowManyBias,22,<b> All </b> of the investments paid off,0.00,100.00,2.50
1566396804,520e00691fd77f2452ced07f9d9702c8,MultiSlider,67,0,EveryNot.None.AllBias,20,Helena is a mediocre athlete who made a resolution to win three Olympic medals this year. Her coach thought that she would do her country proud by winning every medal.
# The lines below this comment are in groups of 2.
# The formats of the lines in each of these groups are as follows:
#
# Line 1:
#     Col. 1: Time results were received.
#     Col. 2: MD5 hash of participant's IP address.
#     Col. 3: Controller name.
#     Col. 4: Item number.
#     Col. 5: Element number.
#     Col. 6: Type.
#     Col. 7: Group.
#     Col. 8: Sentence (or sentence MD5).
# Line 2:
#     Col. 1: Time results were received.
#     Col. 2: MD5 hash of participant's IP address.
#     Col. 3: Controller name.
#     Col. 4: Item number.
#     Col. 5: Element number.
#     Col. 6: Type.
#     Col. 7: Group.
#     Col. 8: html1.
#     Col. 9: startValue.
#     Col. 10: endValue.
#     Col. 11: value.
1566396804,520e00691fd77f2452ced07f9d9702c8,MultiSlider,67,0,EveryNot.None.AllBias,20,How likely are the following situations?
1566396804,520e00691fd77f2452ced07f9d9702c8,MultiSlider,67,0,EveryNot.None.AllBias,20, She won<b> all of </b>the medals,0.00,100.00,0.50
# The lines below this comment are in groups of 2.
# The formats of the lines in each of these groups are as follows:
#
# Line 1:
#     Col. 1: Time results were received.
#     Col. 2: MD5 hash of participant's IP address.
#     Col. 3: Controller name.
#     Col. 4: Item number.
#     Col. 5: Element number.
#     Col. 6: Type.
#     Col. 7: Group.
#     Col. 8: html2.
#     Col. 9: startValue.
#     Col. 10: endValue.
#     Col. 11: value.
# Line 2:
#     Col. 1: Time results were received.
#     Col. 2: MD5 hash of participant's IP address.
#     Col. 3: Controller name.
#     Col. 4: Item number.
#     Col. 5: Element number.
#     Col. 6: Type.
#     Col. 7: Group.
#     Col. 8: html.
#     Col. 9: startValue.
#     Col. 10: endValue.
#     Col. 11: value.
1566396804,520e00691fd77f2452ced07f9d9702c8,MultiSlider,67,0,EveryNot.None.AllBias,20, She didn't win<b> any of </b>the medals,0.00,100.00,96.83
1566396804,520e00691fd77f2452ced07f9d9702c8,MultiSlider,67,0,EveryNot.None.AllBias,20, She won<b> some but not all of </b>the medals,0.00,100.00,1.50
# Columns below this comment are as follows:
# 1. Time results were received.
# 2. MD5 hash of participant's IP address.
# 3. Controller name.
# 4. Item number.
# 5. Element number.
# 6. Type.
# 7. Group.
# 8. Sentence (or sentence MD5).
1566396804,520e00691fd77f2452ced07f9d9702c8,MultiSlider,18,0,EveryNot.All.HowManyBias,4,The couple has been planning their wedding for next month. The bride wants to know if they are behind schedule to finish writing the invitations.
1566396804,520e00691fd77f2452ced07f9d9702c8,MultiSlider,18,0,EveryNot.All.HowManyBias,4,How likely are the following situations?
# The lines below this comment are in groups of 2.
# The formats of the lines in each of these groups are as follows:
#
# Line 1:
#     Col. 1: Time results were received.
#     Col. 2: MD5 hash of participant's IP address.
#     Col. 3: Controller name.
#     Col. 4: Item number.
#     Col. 5: Element number.
#     Col. 6: Type.
#     Col. 7: Group.
#     Col. 8: html1.
#     Col. 9: startValue.
#     Col. 10: endValue.
#     Col. 11: value.
# Line 2:
#     Col. 1: Time results were received.
#     Col. 2: MD5 hash of participant's IP address.
#     Col. 3: Controller name.
#     Col. 4: Item number.
#     Col. 5: Element number.
#     Col. 6: Type.
#     Col. 7: Group.
#     Col. 8: html2.
#     Col. 9: startValue.
#     Col. 10: endValue.
#     Col. 11: value.
1566396804,520e00691fd77f2452ced07f9d9702c8,MultiSlider,18,0,EveryNot.All.HowManyBias,4,<b> None </b> of the wedding invitations have been written,0.00,100.00,24.17
1566396804,520e00691fd77f2452ced07f9d9702c8,MultiSlider,18,0,EveryNot.All.HowManyBias,4,<b> Some but not all </b> of the wedding invitations have been written,0.00,100.00,37.83
# The lines below this comment are in groups of 2.
# The formats of the lines in each of these groups are as follows:
#
# Line 1:
#     Col. 1: Time results were received.
#     Col. 2: MD5 hash of participant's IP address.
#     Col. 3: Controller name.
#     Col. 4: Item number.
#     Col. 5: Element number.
#     Col. 6: Type.
#     Col. 7: Group.
#     Col. 8: html.
#     Col. 9: startValue.
#     Col. 10: endValue.
#     Col. 11: value.
# Line 2:
#     Col. 1: Time results were received.
#     Col. 2: MD5 hash of participant's IP address.
#     Col. 3: Controller name.
#     Col. 4: Item number.
#     Col. 5: Element number.
#     Col. 6: Type.
#     Col. 7: Group.
#     Col. 8: Sentence (or sentence MD5).
1566396804,520e00691fd77f2452ced07f9d9702c8,MultiSlider,18,0,EveryNot.All.HowManyBias,4,<b> All </b> of the wedding invitations have been written,0.00,100.00,28.17
1566396804,520e00691fd77f2452ced07f9d9702c8,MultiSlider,27,0,EveryNot.All.HowManyBias,7,The nursery normally changes infants' diapers before they go to nap. This afternoon%2C a health inspector came to check how many infants had been changed before nap time.
# The lines below this comment are in groups of 2.
# The formats of the lines in each of these groups are as follows:
#
# Line 1:
#     Col. 1: Time results were received.
#     Col. 2: MD5 hash of participant's IP address.
#     Col. 3: Controller name.
#     Col. 4: Item number.
#     Col. 5: Element number.
#     Col. 6: Type.
#     Col. 7: Group.
#     Col. 8: Sentence (or sentence MD5).
# Line 2:
#     Col. 1: Time results were received.
#     Col. 2: MD5 hash of participant's IP address.
#     Col. 3: Controller name.
#     Col. 4: Item number.
#     Col. 5: Element number.
#     Col. 6: Type.
#     Col. 7: Group.
#     Col. 8: html1.
#     Col. 9: startValue.
#     Col. 10: endValue.
#     Col. 11: value.
1566396804,520e00691fd77f2452ced07f9d9702c8,MultiSlider,27,0,EveryNot.All.HowManyBias,7,How likely are the following situations?
1566396804,520e00691fd77f2452ced07f9d9702c8,MultiSlider,27,0,EveryNot.All.HowManyBias,7,<b> None </b> of the infants have been changed,0.00,100.00,0.17
# The lines below this comment are in groups of 2.
# The formats of the lines in each of these groups are as follows:
#
# Line 1:
#     Col. 1: Time results were received.
#     Col. 2: MD5 hash of participant's IP address.
#     Col. 3: Controller name.
#     Col. 4: Item number.
#     Col. 5: Element number.
#     Col. 6: Type.
#     Col. 7: Group.
#     Col. 8: html2.
#     Col. 9: startValue.
#     Col. 10: endValue.
#     Col. 11: value.
# Line 2:
#     Col. 1: Time results were received.
#     Col. 2: MD5 hash of participant's IP address.
#     Col. 3: Controller name.
#     Col. 4: Item number.
#     Col. 5: Element number.
#     Col. 6: Type.
#     Col. 7: Group.
#     Col. 8: html.
#     Col. 9: startValue.
#     Col. 10: endValue.
#     Col. 11: value.
1566396804,520e00691fd77f2452ced07f9d9702c8,MultiSlider,27,0,EveryNot.All.HowManyBias,7,<b> Some but not all </b> of the infants have been changed,0.00,100.00,2.83
1566396804,520e00691fd77f2452ced07f9d9702c8,MultiSlider,27,0,EveryNot.All.HowManyBias,7,<b> All </b> of the infants have been changed,0.00,100.00,99.17
# Columns below this comment are as follows:
# 1. Time results were received.
# 2. MD5 hash of participant's IP address.
# 3. Controller name.
# 4. Item number.
# 5. Element number.
# 6. Type.
# 7. Group.
# 8. Sentence (or sentence MD5).
1566396804,520e00691fd77f2452ced07f9d9702c8,MultiSlider,44,0,EveryNot.Some.NoneBias,12,Sue and Marc went to a two-day science exhibition. On the first day%2C the organizers approached them and asked if they had already been to any of the booths.
1566396804,520e00691fd77f2452ced07f9d9702c8,MultiSlider,44,0,EveryNot.Some.NoneBias,12,How likely are the following situations?
# The lines below this comment are in groups of 2.
# The formats of the lines in each of these groups are as follows:
#
# Line 1:
#     Col. 1: Time results were received.
#     Col. 2: MD5 hash of participant's IP address.
#     Col. 3: Controller name.
#     Col. 4: Item number.
#     Col. 5: Element number.
#     Col. 6: Type.
#     Col. 7: Group.
#     Col. 8: html1.
#     Col. 9: startValue.
#     Col. 10: endValue.
#     Col. 11: value.
# Line 2:
#     Col. 1: Time results were received.
#     Col. 2: MD5 hash of participant's IP address.
#     Col. 3: Controller name.
#     Col. 4: Item number.
#     Col. 5: Element number.
#     Col. 6: Type.
#     Col. 7: Group.
#     Col. 8: html2.
#     Col. 9: startValue.
#     Col. 10: endValue.
#     Col. 11: value.
1566396804,520e00691fd77f2452ced07f9d9702c8,MultiSlider,44,0,EveryNot.Some.NoneBias,12,Sue and Marc have visited<b> some but not all of </b>the booths so far,0.00,100.00,97.50
1566396804,520e00691fd77f2452ced07f9d9702c8,MultiSlider,44,0,EveryNot.Some.NoneBias,12,Sue and Marc have visited<b> all of </b>the booths so far,0.00,100.00,1.83
# The lines below this comment are in groups of 2.
# The formats of the lines in each of these groups are as follows:
#
# Line 1:
#     Col. 1: Time results were received.
#     Col. 2: MD5 hash of participant's IP address.
#     Col. 3: Controller name.
#     Col. 4: Item number.
#     Col. 5: Element number.
#     Col. 6: Type.
#     Col. 7: Group.
#     Col. 8: html.
#     Col. 9: startValue.
#     Col. 10: endValue.
#     Col. 11: value.
# Line 2:
#     Col. 1: Time results were received.
#     Col. 2: MD5 hash of participant's IP address.
#     Col. 3: Controller name.
#     Col. 4: Item number.
#     Col. 5: Element number.
#     Col. 6: Type.
#     Col. 7: Group.
#     Col. 8: Sentence (or sentence MD5).
1566396804,520e00691fd77f2452ced07f9d9702c8,MultiSlider,44,0,EveryNot.Some.NoneBias,12,Sue and Marc haven't visited<b> any of </b>the booths so far,0.00,100.00,2.50
1566396804,520e00691fd77f2452ced07f9d9702c8,MultiSlider,54,0,EveryNot.Some.HowManyBias,16,A tech start-up is facing some financial issues. During an HR meeting%2C the board discussed how much they had to downsize.
# The lines below this comment are in groups of 2.
# The formats of the lines in each of these groups are as follows:
#
# Line 1:
#     Col. 1: Time results were received.
#     Col. 2: MD5 hash of participant's IP address.
#     Col. 3: Controller name.
#     Col. 4: Item number.
#     Col. 5: Element number.
#     Col. 6: Type.
#     Col. 7: Group.
#     Col. 8: Sentence (or sentence MD5).
# Line 2:
#     Col. 1: Time results were received.
#     Col. 2: MD5 hash of participant's IP address.
#     Col. 3: Controller name.
#     Col. 4: Item number.
#     Col. 5: Element number.
#     Col. 6: Type.
#     Col. 7: Group.
#     Col. 8: html1.
#     Col. 9: startValue.
#     Col. 10: endValue.
#     Col. 11: value.
1566396804,520e00691fd77f2452ced07f9d9702c8,MultiSlider,54,0,EveryNot.Some.HowManyBias,16,How likely are the following situations?
1566396804,520e00691fd77f2452ced07f9d9702c8,MultiSlider,54,0,EveryNot.Some.HowManyBias,16,<b> None </b> of the employees will be fired,0.00,100.00,7.83
# The lines below this comment are in groups of 2.
# The formats of the lines in each of these groups are as follows:
#
# Line 1:
#     Col. 1: Time results were received.
#     Col. 2: MD5 hash of participant's IP address.
#     Col. 3: Controller name.
#     Col. 4: Item number.
#     Col. 5: Element number.
#     Col. 6: Type.
#     Col. 7: Group.
#     Col. 8: html2.
#     Col. 9: startValue.
#     Col. 10: endValue.
#     Col. 11: value.
# Line 2:
#     Col. 1: Time results were received.
#     Col. 2: MD5 hash of participant's IP address.
#     Col. 3: Controller name.
#     Col. 4: Item number.
#     Col. 5: Element number.
#     Col. 6: Type.
#     Col. 7: Group.
#     Col. 8: html.
#     Col. 9: startValue.
#     Col. 10: endValue.
#     Col. 11: value.
1566396804,520e00691fd77f2452ced07f9d9702c8,MultiSlider,54,0,EveryNot.Some.HowManyBias,16,<b> Some but not all </b> of the employees will be fired,0.00,100.00,15.50
1566396804,520e00691fd77f2452ced07f9d9702c8,MultiSlider,54,0,EveryNot.Some.HowManyBias,16,<b> All </b> of the employees will be fired,0.00,100.00,1.83
# Columns below this comment are as follows:
# 1. Time results were received.
# 2. MD5 hash of participant's IP address.
# 3. Controller name.
# 4. Item number.
# 5. Element number.
# 6. Type.
# 7. Group.
# 8. Sentence (or sentence MD5).
1566396804,520e00691fd77f2452ced07f9d9702c8,MultiSlider,22,0,EveryNot.All.AllBias,5,Paula is a dedicated store assistant. A week ago%2C five boxes of new products had arrived at the store. Her manager asked if she had already opened the boxes.
1566396804,520e00691fd77f2452ced07f9d9702c8,MultiSlider,22,0,EveryNot.All.AllBias,5,How likely are the following situations?
# The lines below this comment are in groups of 2.
# The formats of the lines in each of these groups are as follows:
#
# Line 1:
#     Col. 1: Time results were received.
#     Col. 2: MD5 hash of participant's IP address.
#     Col. 3: Controller name.
#     Col. 4: Item number.
#     Col. 5: Element number.
#     Col. 6: Type.
#     Col. 7: Group.
#     Col. 8: html1.
#     Col. 9: startValue.
#     Col. 10: endValue.
#     Col. 11: value.
# Line 2:
#     Col. 1: Time results were received.
#     Col. 2: MD5 hash of participant's IP address.
#     Col. 3: Controller name.
#     Col. 4: Item number.
#     Col. 5: Element number.
#     Col. 6: Type.
#     Col. 7: Group.
#     Col. 8: html2.
#     Col. 9: startValue.
#     Col. 10: endValue.
#     Col. 11: value.
1566396804,520e00691fd77f2452ced07f9d9702c8,MultiSlider,22,0,EveryNot.All.AllBias,5,<b> All </b> of the boxes have been opened,0.00,100.00,97.17
1566396804,520e00691fd77f2452ced07f9d9702c8,MultiSlider,22,0,EveryNot.All.AllBias,5,<b> None </b> of the boxes have been opened,0.00,100.00,3.50
# The lines below this comment are in groups of 2.
# The formats of the lines in each of these groups are as follows:
#
# Line 1:
#     Col. 1: Time results were received.
#     Col. 2: MD5 hash of participant's IP address.
#     Col. 3: Controller name.
#     Col. 4: Item number.
#     Col. 5: Element number.
#     Col. 6: Type.
#     Col. 7: Group.
#     Col. 8: html.
#     Col. 9: startValue.
#     Col. 10: endValue.
#     Col. 11: value.
# Line 2:
#     Col. 1: Time results were received.
#     Col. 2: MD5 hash of participant's IP address.
#     Col. 3: Controller name.
#     Col. 4: Item number.
#     Col. 5: Element number.
#     Col. 6: Type.
#     Col. 7: Group.
#     Col. 8: Sentence (or sentence MD5).
1566396804,520e00691fd77f2452ced07f9d9702c8,MultiSlider,22,0,EveryNot.All.AllBias,5,<b> Some but not all </b> of the boxes have been opened,0.00,100.00,68.50
1566396804,520e00691fd77f2452ced07f9d9702c8,MultiSlider,13,0,EveryNot.All.AllBias,2,Erin is a vet. During her last trip%2C she encountered six deer in critical condition%2C and she did the best she could to save all their lives.
# The lines below this comment are in groups of 2.
# The formats of the lines in each of these groups are as follows:
#
# Line 1:
#     Col. 1: Time results were received.
#     Col. 2: MD5 hash of participant's IP address.
#     Col. 3: Controller name.
#     Col. 4: Item number.
#     Col. 5: Element number.
#     Col. 6: Type.
#     Col. 7: Group.
#     Col. 8: Sentence (or sentence MD5).
# Line 2:
#     Col. 1: Time results were received.
#     Col. 2: MD5 hash of participant's IP address.
#     Col. 3: Controller name.
#     Col. 4: Item number.
#     Col. 5: Element number.
#     Col. 6: Type.
#     Col. 7: Group.
#     Col. 8: html1.
#     Col. 9: startValue.
#     Col. 10: endValue.
#     Col. 11: value.
1566396804,520e00691fd77f2452ced07f9d9702c8,MultiSlider,13,0,EveryNot.All.AllBias,2,How likely are the following situations?
1566396804,520e00691fd77f2452ced07f9d9702c8,MultiSlider,13,0,EveryNot.All.AllBias,2,<b> All </b> of the six deer survived,0.00,100.00,2.17
# The lines below this comment are in groups of 2.
# The formats of the lines in each of these groups are as follows:
#
# Line 1:
#     Col. 1: Time results were received.
#     Col. 2: MD5 hash of participant's IP address.
#     Col. 3: Controller name.
#     Col. 4: Item number.
#     Col. 5: Element number.
#     Col. 6: Type.
#     Col. 7: Group.
#     Col. 8: html2.
#     Col. 9: startValue.
#     Col. 10: endValue.
#     Col. 11: value.
# Line 2:
#     Col. 1: Time results were received.
#     Col. 2: MD5 hash of participant's IP address.
#     Col. 3: Controller name.
#     Col. 4: Item number.
#     Col. 5: Element number.
#     Col. 6: Type.
#     Col. 7: Group.
#     Col. 8: html.
#     Col. 9: startValue.
#     Col. 10: endValue.
#     Col. 11: value.
1566396804,520e00691fd77f2452ced07f9d9702c8,MultiSlider,13,0,EveryNot.All.AllBias,2,<b> None </b> of the six deer survived,0.00,100.00,98.17
1566396804,520e00691fd77f2452ced07f9d9702c8,MultiSlider,13,0,EveryNot.All.AllBias,2,<b> Some but not all </b> of the six deer survived,0.00,100.00,13.50
# Columns below this comment are as follows:
# 1. Time results were received.
# 2. MD5 hash of participant's IP address.
# 3. Controller name.
# 4. Item number.
# 5. Element number.
# 6. Type.
# 7. Group.
# 8. Sentence (or sentence MD5).
1566396804,520e00691fd77f2452ced07f9d9702c8,MultiSlider,49,0,EveryNot.Some.AllBias,14,Roy recently started a career as a professional gamer. A journalist interviewed him%2C and asked if he had already been invited to all of the five Major League Gaming tournaments.
1566396804,520e00691fd77f2452ced07f9d9702c8,MultiSlider,49,0,EveryNot.Some.AllBias,14,How likely are the following situations?
# The lines below this comment are in groups of 2.
# The formats of the lines in each of these groups are as follows:
#
# Line 1:
#     Col. 1: Time results were received.
#     Col. 2: MD5 hash of participant's IP address.
#     Col. 3: Controller name.
#     Col. 4: Item number.
#     Col. 5: Element number.
#     Col. 6: Type.
#     Col. 7: Group.
#     Col. 8: html1.
#     Col. 9: startValue.
#     Col. 10: endValue.
#     Col. 11: value.
# Line 2:
#     Col. 1: Time results were received.
#     Col. 2: MD5 hash of participant's IP address.
#     Col. 3: Controller name.
#     Col. 4: Item number.
#     Col. 5: Element number.
#     Col. 6: Type.
#     Col. 7: Group.
#     Col. 8: html2.
#     Col. 9: startValue.
#     Col. 10: endValue.
#     Col. 11: value.
1566396804,520e00691fd77f2452ced07f9d9702c8,MultiSlider,49,0,EveryNot.Some.AllBias,14, Roy has been invited to<b> all of </b>the Major League Gaming tournaments,0.00,100.00,1.50
1566396804,520e00691fd77f2452ced07f9d9702c8,MultiSlider,49,0,EveryNot.Some.AllBias,14, Roy hasn't been invited to<b> any of </b>the Major League Gaming tournaments,0.00,100.00,71.17
# The lines below this comment are in groups of 2.
# The formats of the lines in each of these groups are as follows:
#
# Line 1:
#     Col. 1: Time results were received.
#     Col. 2: MD5 hash of participant's IP address.
#     Col. 3: Controller name.
#     Col. 4: Item number.
#     Col. 5: Element number.
#     Col. 6: Type.
#     Col. 7: Group.
#     Col. 8: html.
#     Col. 9: startValue.
#     Col. 10: endValue.
#     Col. 11: value.
# Line 2:
#     Col. 1: Time results were received.
#     Col. 2: MD5 hash of participant's IP address.
#     Col. 3: Controller name.
#     Col. 4: Item number.
#     Col. 5: Element number.
#     Col. 6: Type.
#     Col. 7: Group.
#     Col. 8: Sentence (or sentence MD5).
1566396804,520e00691fd77f2452ced07f9d9702c8,MultiSlider,49,0,EveryNot.Some.AllBias,14, Roy has been invited to<b> some but not all of </b>the Major League Gaming tournaments,0.00,100.00,36.50
1566396804,520e00691fd77f2452ced07f9d9702c8,MultiSlider,76,0,EveryNot.None.AllBias,23,The hospital has the best doctors in the country. One day%2C five patients had to be operated on for fractures in arms and legs. Afterwards%2C a news reporter asked whether the patients had been successfully treated.
# The lines below this comment are in groups of 2.
