#
# Results on Wednesday August 21 2019 11:59:10 UTC.
# USER AGENT: Mozilla/5.0 (Windows NT 10.0; Win64; x64) AppleWebKit/537.36 (KHTML, like Gecko) Chrome/76.0.3809.100 Safari/537.36
# Design number was non-random = 1
#
# Columns below this comment are as follows:
# 1. Time results were received.
# 2. MD5 hash of participant's IP address.
# 3. Controller name.
# 4. Item number.
# 5. Element number.
# 6. Type.
# 7. Group.
# 8. Field name.
# 9. Field value.
1566388751,105cc01dded11b3751921349e8c8447f,Form,7,0,consent,NULL,consent,yes
1566388751,105cc01dded11b3751921349e8c8447f,Form,7,0,consent,NULL,_REACTION_TIME_,3683
1566388751,105cc01dded11b3751921349e8c8447f,Form,1,0,intro,NULL,age,31
1566388751,105cc01dded11b3751921349e8c8447f,Form,1,0,intro,NULL,natlang,english
1566388751,105cc01dded11b3751921349e8c8447f,Form,1,0,intro,NULL,otherlang,no
1566388751,105cc01dded11b3751921349e8c8447f,Form,1,0,intro,NULL,Prolific,5d36272bbfc259001911bf25
1566388751,105cc01dded11b3751921349e8c8447f,Form,1,0,intro,NULL,gender,male
1566388751,105cc01dded11b3751921349e8c8447f,Form,1,0,intro,NULL,_REACTION_TIME_,20347
1566388751,105cc01dded11b3751921349e8c8447f,Form,2,0,intro1,NULL,_REACTION_TIME_,2015
1566388751,105cc01dded11b3751921349e8c8447f,Form,3,0,intro2,NULL,_REACTION_TIME_,15133
1566388751,105cc01dded11b3751921349e8c8447f,Form,4,0,intro3,NULL,_REACTION_TIME_,1907
# Columns below this comment are as follows:
# 1. Time results were received.
# 2. MD5 hash of participant's IP address.
# 3. Controller name.
# 4. Item number.
# 5. Element number.
# 6. Type.
# 7. Group.
# 8. Sentence (or sentence MD5).
1566388751,105cc01dded11b3751921349e8c8447f,MultiSlider,28,0,EveryNot.All.AllBias,7,The nursery normally changes infants' diapers before they go to nap. This afternoon%2C a health inspector wanted to make sure all of the infants had been changed before nap time.
1566388751,105cc01dded11b3751921349e8c8447f,MultiSlider,28,0,EveryNot.All.AllBias,7,How likely are the following situations?
# The lines below this comment are in groups of 2.
# The formats of the lines in each of these groups are as follows:
#
# Line 1:
#     Col. 1: Time results were received.
#     Col. 2: MD5 hash of participant's IP address.
#     Col. 3: Controller name.
#     Col. 4: Item number.
#     Col. 5: Element number.
#     Col. 6: Type.
#     Col. 7: Group.
#     Col. 8: html.
#     Col. 9: startValue.
#     Col. 10: endValue.
#     Col. 11: value.
# Line 2:
#     Col. 1: Time results were received.
#     Col. 2: MD5 hash of participant's IP address.
#     Col. 3: Controller name.
#     Col. 4: Item number.
#     Col. 5: Element number.
#     Col. 6: Type.
#     Col. 7: Group.
#     Col. 8: Sentence (or sentence MD5).
1566388751,105cc01dded11b3751921349e8c8447f,MultiSlider,28,0,EveryNot.All.AllBias,7,<b> None </b> of the infants have been changed,0.00,100.00,50.00
1566388751,105cc01dded11b3751921349e8c8447f,MultiSlider,37,0,EveryNot.Some.AllBias,10,The city council organized a spelling bee competition. As the competition began%2C the parents wondered if their kids would be able to get everything correct.
# The lines below this comment are in groups of 2.
# The formats of the lines in each of these groups are as follows:
#
# Line 1:
#     Col. 1: Time results were received.
#     Col. 2: MD5 hash of participant's IP address.
#     Col. 3: Controller name.
#     Col. 4: Item number.
#     Col. 5: Element number.
#     Col. 6: Type.
#     Col. 7: Group.
#     Col. 8: Sentence (or sentence MD5).
# Line 2:
#     Col. 1: Time results were received.
#     Col. 2: MD5 hash of participant's IP address.
#     Col. 3: Controller name.
#     Col. 4: Item number.
#     Col. 5: Element number.
#     Col. 6: Type.
#     Col. 7: Group.
#     Col. 8: html1.
#     Col. 9: startValue.
#     Col. 10: endValue.
#     Col. 11: value.
1566388751,105cc01dded11b3751921349e8c8447f,MultiSlider,37,0,EveryNot.Some.AllBias,10,How likely are the following situations?
1566388751,105cc01dded11b3751921349e8c8447f,MultiSlider,37,0,EveryNot.Some.AllBias,10,The kids answered <b> some but not all of </b>the questions correctly,0.00,100.00,42.17
# The lines below this comment are in groups of 2.
# The formats of the lines in each of these groups are as follows:
#
# Line 1:
#     Col. 1: Time results were received.
#     Col. 2: MD5 hash of participant's IP address.
#     Col. 3: Controller name.
#     Col. 4: Item number.
#     Col. 5: Element number.
#     Col. 6: Type.
#     Col. 7: Group.
#     Col. 8: html1.
#     Col. 9: startValue.
#     Col. 10: endValue.
#     Col. 11: value.
# Line 2:
#     Col. 1: Time results were received.
#     Col. 2: MD5 hash of participant's IP address.
#     Col. 3: Controller name.
#     Col. 4: Item number.
#     Col. 5: Element number.
#     Col. 6: Type.
#     Col. 7: Group.
#     Col. 8: html2.
#     Col. 9: startValue.
#     Col. 10: endValue.
#     Col. 11: value.
1566388751,105cc01dded11b3751921349e8c8447f,MultiSlider,37,0,EveryNot.Some.AllBias,10,The kids answered <b> some but not all of </b>the questions correctly,0.00,100.00,94.83
1566388751,105cc01dded11b3751921349e8c8447f,MultiSlider,37,0,EveryNot.Some.AllBias,10,The kids answered <b> all of </b>the questions correctly,0.00,100.00,1.50
# The lines below this comment are in groups of 2.
# The formats of the lines in each of these groups are as follows:
#
# Line 1:
#     Col. 1: Time results were received.
#     Col. 2: MD5 hash of participant's IP address.
#     Col. 3: Controller name.
#     Col. 4: Item number.
#     Col. 5: Element number.
#     Col. 6: Type.
#     Col. 7: Group.
#     Col. 8: html.
#     Col. 9: startValue.
#     Col. 10: endValue.
#     Col. 11: value.
# Line 2:
#     Col. 1: Time results were received.
#     Col. 2: MD5 hash of participant's IP address.
#     Col. 3: Controller name.
#     Col. 4: Item number.
#     Col. 5: Element number.
#     Col. 6: Type.
#     Col. 7: Group.
#     Col. 8: Sentence (or sentence MD5).
1566388751,105cc01dded11b3751921349e8c8447f,MultiSlider,37,0,EveryNot.Some.AllBias,10,The kids didn't answer <b> any of </b>the questions correctly,0.00,100.00,0.83
1566388751,105cc01dded11b3751921349e8c8447f,MultiSlider,19,0,EveryNot.All.AllBias,4,The couple has been planning their wedding for next month. The bride asks her future husband if he has finished writing the invitations.
# The lines below this comment are in groups of 2.
# The formats of the lines in each of these groups are as follows:
#
# Line 1:
#     Col. 1: Time results were received.
#     Col. 2: MD5 hash of participant's IP address.
#     Col. 3: Controller name.
#     Col. 4: Item number.
#     Col. 5: Element number.
#     Col. 6: Type.
#     Col. 7: Group.
#     Col. 8: Sentence (or sentence MD5).
# Line 2:
#     Col. 1: Time results were received.
#     Col. 2: MD5 hash of participant's IP address.
#     Col. 3: Controller name.
#     Col. 4: Item number.
#     Col. 5: Element number.
#     Col. 6: Type.
#     Col. 7: Group.
#     Col. 8: html1.
#     Col. 9: startValue.
#     Col. 10: endValue.
#     Col. 11: value.
1566388751,105cc01dded11b3751921349e8c8447f,MultiSlider,19,0,EveryNot.All.AllBias,4,How likely are the following situations?
1566388751,105cc01dded11b3751921349e8c8447f,MultiSlider,19,0,EveryNot.All.AllBias,4,<b> Some but not all </b> of the wedding invitations have been written,0.00,100.00,92.83
# Columns below this comment are as follows:
# 1. Time results were received.
# 2. MD5 hash of participant's IP address.
# 3. Controller name.
# 4. Item number.
# 5. Element number.
# 6. Type.
# 7. Group.
# 8. html2.
# 9. startValue.
# 10. endValue.
# 11. value.
1566388751,105cc01dded11b3751921349e8c8447f,MultiSlider,19,0,EveryNot.All.AllBias,4,<b> All </b> of the wedding invitations have been written,0.00,100.00,29.83
1566388751,105cc01dded11b3751921349e8c8447f,MultiSlider,19,0,EveryNot.All.AllBias,4,<b> All </b> of the wedding invitations have been written,0.00,100.00,23.17
# The lines below this comment are in groups of 2.
# The formats of the lines in each of these groups are as follows:
#
# Line 1:
#     Col. 1: Time results were received.
#     Col. 2: MD5 hash of participant's IP address.
#     Col. 3: Controller name.
#     Col. 4: Item number.
#     Col. 5: Element number.
#     Col. 6: Type.
#     Col. 7: Group.
#     Col. 8: html.
#     Col. 9: startValue.
#     Col. 10: endValue.
#     Col. 11: value.
# Line 2:
#     Col. 1: Time results were received.
#     Col. 2: MD5 hash of participant's IP address.
#     Col. 3: Controller name.
#     Col. 4: Item number.
#     Col. 5: Element number.
#     Col. 6: Type.
#     Col. 7: Group.
#     Col. 8: Sentence (or sentence MD5).
1566388751,105cc01dded11b3751921349e8c8447f,MultiSlider,19,0,EveryNot.All.AllBias,4,<b> None </b> of the wedding invitations have been written,0.00,100.00,23.17
1566388751,105cc01dded11b3751921349e8c8447f,MultiSlider,14,0,EveryNot.All.NoneBias,2,Erin is a vet. During her last trip%2C she encountered six deer in critical condition%2C and she did the best she could to save even just one life.
# The lines below this comment are in groups of 2.
# The formats of the lines in each of these groups are as follows:
#
# Line 1:
#     Col. 1: Time results were received.
#     Col. 2: MD5 hash of participant's IP address.
#     Col. 3: Controller name.
#     Col. 4: Item number.
#     Col. 5: Element number.
#     Col. 6: Type.
#     Col. 7: Group.
#     Col. 8: Sentence (or sentence MD5).
# Line 2:
#     Col. 1: Time results were received.
#     Col. 2: MD5 hash of participant's IP address.
#     Col. 3: Controller name.
#     Col. 4: Item number.
#     Col. 5: Element number.
#     Col. 6: Type.
#     Col. 7: Group.
#     Col. 8: html1.
#     Col. 9: startValue.
#     Col. 10: endValue.
#     Col. 11: value.
1566388751,105cc01dded11b3751921349e8c8447f,MultiSlider,14,0,EveryNot.All.NoneBias,2,How likely are the following situations?
1566388751,105cc01dded11b3751921349e8c8447f,MultiSlider,14,0,EveryNot.All.NoneBias,2,<b> None </b> of the six deer survived,0.00,100.00,71.83
# The lines below this comment are in groups of 2.
# The formats of the lines in each of these groups are as follows:
#
# Line 1:
#     Col. 1: Time results were received.
#     Col. 2: MD5 hash of participant's IP address.
#     Col. 3: Controller name.
#     Col. 4: Item number.
#     Col. 5: Element number.
#     Col. 6: Type.
#     Col. 7: Group.
#     Col. 8: html2.
#     Col. 9: startValue.
#     Col. 10: endValue.
#     Col. 11: value.
# Line 2:
#     Col. 1: Time results were received.
#     Col. 2: MD5 hash of participant's IP address.
#     Col. 3: Controller name.
#     Col. 4: Item number.
#     Col. 5: Element number.
#     Col. 6: Type.
#     Col. 7: Group.
#     Col. 8: html.
#     Col. 9: startValue.
#     Col. 10: endValue.
#     Col. 11: value.
1566388751,105cc01dded11b3751921349e8c8447f,MultiSlider,14,0,EveryNot.All.NoneBias,2,<b> Some but not all </b> of the six deer survived,0.00,100.00,86.50
1566388751,105cc01dded11b3751921349e8c8447f,MultiSlider,14,0,EveryNot.All.NoneBias,2,<b> All </b> of the six deer survived,0.00,100.00,4.83
# Columns below this comment are as follows:
# 1. Time results were received.
# 2. MD5 hash of participant's IP address.
# 3. Controller name.
# 4. Item number.
# 5. Element number.
# 6. Type.
# 7. Group.
# 8. Sentence (or sentence MD5).
1566388751,105cc01dded11b3751921349e8c8447f,MultiSlider,24,0,EveryNot.All.HowManyBias,6,Eric is a professional producer working on a new album. One day%2C he called the composer  to ask about their progress in demoing the new songs.
1566388751,105cc01dded11b3751921349e8c8447f,MultiSlider,24,0,EveryNot.All.HowManyBias,6,How likely are the following situations?
# The lines below this comment are in groups of 2.
# The formats of the lines in each of these groups are as follows:
#
# Line 1:
#     Col. 1: Time results were received.
#     Col. 2: MD5 hash of participant's IP address.
#     Col. 3: Controller name.
#     Col. 4: Item number.
#     Col. 5: Element number.
#     Col. 6: Type.
#     Col. 7: Group.
#     Col. 8: html1.
#     Col. 9: startValue.
#     Col. 10: endValue.
#     Col. 11: value.
# Line 2:
#     Col. 1: Time results were received.
#     Col. 2: MD5 hash of participant's IP address.
#     Col. 3: Controller name.
#     Col. 4: Item number.
#     Col. 5: Element number.
#     Col. 6: Type.
#     Col. 7: Group.
#     Col. 8: html2.
#     Col. 9: startValue.
#     Col. 10: endValue.
#     Col. 11: value.
1566388751,105cc01dded11b3751921349e8c8447f,MultiSlider,24,0,EveryNot.All.HowManyBias,6,<b> All </b> of the new songs have been demoed,0.00,100.00,69.83
1566388751,105cc01dded11b3751921349e8c8447f,MultiSlider,24,0,EveryNot.All.HowManyBias,6,<b> None </b> of the new songs have been demoed,0.00,100.00,70.17
# The lines below this comment are in groups of 2.
# The formats of the lines in each of these groups are as follows:
#
# Line 1:
#     Col. 1: Time results were received.
#     Col. 2: MD5 hash of participant's IP address.
#     Col. 3: Controller name.
#     Col. 4: Item number.
#     Col. 5: Element number.
#     Col. 6: Type.
#     Col. 7: Group.
#     Col. 8: html.
#     Col. 9: startValue.
#     Col. 10: endValue.
#     Col. 11: value.
# Line 2:
#     Col. 1: Time results were received.
#     Col. 2: MD5 hash of participant's IP address.
#     Col. 3: Controller name.
#     Col. 4: Item number.
#     Col. 5: Element number.
#     Col. 6: Type.
#     Col. 7: Group.
#     Col. 8: Sentence (or sentence MD5).
1566388751,105cc01dded11b3751921349e8c8447f,MultiSlider,24,0,EveryNot.All.HowManyBias,6,<b> Some but not all </b> of the new songs have been demoed,0.00,100.00,98.83
1566388751,105cc01dded11b3751921349e8c8447f,MultiSlider,41,0,EveryNot.Some.NoneBias,11,The local community organized a flea market last weekend. The sellers  all hoped that they could close even just one sale they dealt with.
# The lines below this comment are in groups of 2.
# The formats of the lines in each of these groups are as follows:
#
# Line 1:
#     Col. 1: Time results were received.
#     Col. 2: MD5 hash of participant's IP address.
#     Col. 3: Controller name.
#     Col. 4: Item number.
#     Col. 5: Element number.
#     Col. 6: Type.
#     Col. 7: Group.
#     Col. 8: Sentence (or sentence MD5).
# Line 2:
#     Col. 1: Time results were received.
#     Col. 2: MD5 hash of participant's IP address.
#     Col. 3: Controller name.
#     Col. 4: Item number.
#     Col. 5: Element number.
#     Col. 6: Type.
#     Col. 7: Group.
#     Col. 8: html1.
#     Col. 9: startValue.
#     Col. 10: endValue.
#     Col. 11: value.
1566388751,105cc01dded11b3751921349e8c8447f,MultiSlider,41,0,EveryNot.Some.NoneBias,11,How likely are the following situations?
1566388751,105cc01dded11b3751921349e8c8447f,MultiSlider,41,0,EveryNot.Some.NoneBias,11,<b> None </b> of the sales were closed in the end,0.00,100.00,60.83
# Columns below this comment are as follows:
# 1. Time results were received.
# 2. MD5 hash of participant's IP address.
# 3. Controller name.
# 4. Item number.
# 5. Element number.
# 6. Type.
# 7. Group.
# 8. html2.
# 9. startValue.
# 10. endValue.
# 11. value.
1566388751,105cc01dded11b3751921349e8c8447f,MultiSlider,41,0,EveryNot.Some.NoneBias,11,<b> Some but not all </b> of the sales were closed in the end,0.00,100.00,80.50
1566388751,105cc01dded11b3751921349e8c8447f,MultiSlider,41,0,EveryNot.Some.NoneBias,11,<b> Some but not all </b> of the sales were closed in the end,0.00,100.00,93.83
# The lines below this comment are in groups of 2.
# The formats of the lines in each of these groups are as follows:
#
# Line 1:
#     Col. 1: Time results were received.
#     Col. 2: MD5 hash of participant's IP address.
#     Col. 3: Controller name.
#     Col. 4: Item number.
#     Col. 5: Element number.
#     Col. 6: Type.
#     Col. 7: Group.
#     Col. 8: html.
#     Col. 9: startValue.
#     Col. 10: endValue.
#     Col. 11: value.
# Line 2:
#     Col. 1: Time results were received.
#     Col. 2: MD5 hash of participant's IP address.
#     Col. 3: Controller name.
#     Col. 4: Item number.
#     Col. 5: Element number.
#     Col. 6: Type.
#     Col. 7: Group.
#     Col. 8: Sentence (or sentence MD5).
1566388751,105cc01dded11b3751921349e8c8447f,MultiSlider,41,0,EveryNot.Some.NoneBias,11,<b> All </b> of the sales were closed in the end,0.00,100.00,6.17
1566388751,105cc01dded11b3751921349e8c8447f,MultiSlider,32,0,EveryNot.All.NoneBias,8,A glamorous cocktail event was being held in the Hilton hotel. When guests arrived%2C the receptionist wanted to see if anyone observed the dress code in the invitation.
# The lines below this comment are in groups of 2.
# The formats of the lines in each of these groups are as follows:
#
# Line 1:
#     Col. 1: Time results were received.
#     Col. 2: MD5 hash of participant's IP address.
#     Col. 3: Controller name.
#     Col. 4: Item number.
#     Col. 5: Element number.
#     Col. 6: Type.
#     Col. 7: Group.
#     Col. 8: Sentence (or sentence MD5).
# Line 2:
#     Col. 1: Time results were received.
#     Col. 2: MD5 hash of participant's IP address.
#     Col. 3: Controller name.
#     Col. 4: Item number.
#     Col. 5: Element number.
#     Col. 6: Type.
#     Col. 7: Group.
#     Col. 8: html1.
#     Col. 9: startValue.
#     Col. 10: endValue.
#     Col. 11: value.
1566388751,105cc01dded11b3751921349e8c8447f,MultiSlider,32,0,EveryNot.All.NoneBias,8,How likely are the following situations?
1566388751,105cc01dded11b3751921349e8c8447f,MultiSlider,32,0,EveryNot.All.NoneBias,8,<b> None </b> of the guests were dressed properly,0.00,100.00,2.50
# The lines below this comment are in groups of 2.
# The formats of the lines in each of these groups are as follows:
#
# Line 1:
#     Col. 1: Time results were received.
#     Col. 2: MD5 hash of participant's IP address.
#     Col. 3: Controller name.
#     Col. 4: Item number.
#     Col. 5: Element number.
#     Col. 6: Type.
#     Col. 7: Group.
#     Col. 8: html2.
#     Col. 9: startValue.
#     Col. 10: endValue.
#     Col. 11: value.
# Line 2:
#     Col. 1: Time results were received.
#     Col. 2: MD5 hash of participant's IP address.
#     Col. 3: Controller name.
#     Col. 4: Item number.
#     Col. 5: Element number.
#     Col. 6: Type.
#     Col. 7: Group.
#     Col. 8: html.
#     Col. 9: startValue.
#     Col. 10: endValue.
#     Col. 11: value.
1566388751,105cc01dded11b3751921349e8c8447f,MultiSlider,32,0,EveryNot.All.NoneBias,8,<b> Some but not all </b> of the guests were dressed properly,0.00,100.00,96.83
1566388751,105cc01dded11b3751921349e8c8447f,MultiSlider,32,0,EveryNot.All.NoneBias,8,<b> All </b> of the guests were dressed properly,0.00,100.00,71.83
# Columns below this comment are as follows:
# 1. Time results were received.
# 2. MD5 hash of participant's IP address.
# 3. Controller name.
# 4. Item number.
# 5. Element number.
# 6. Type.
# 7. Group.
# 8. Sentence (or sentence MD5).
1566388751,105cc01dded11b3751921349e8c8447f,MultiSlider,46,0,EveryNot.Some.AllBias,13,Lily inherited her mom's huge book collection. When her boyfriend visited%2C he wondered if Lily had already cataloged the entire collection.
1566388751,105cc01dded11b3751921349e8c8447f,MultiSlider,46,0,EveryNot.Some.AllBias,13,How likely are the following situations?
# The lines below this comment are in groups of 2.
# The formats of the lines in each of these groups are as follows:
#
# Line 1:
#     Col. 1: Time results were received.
#     Col. 2: MD5 hash of participant's IP address.
#     Col. 3: Controller name.
#     Col. 4: Item number.
#     Col. 5: Element number.
#     Col. 6: Type.
#     Col. 7: Group.
#     Col. 8: html1.
#     Col. 9: startValue.
#     Col. 10: endValue.
#     Col. 11: value.
# Line 2:
#     Col. 1: Time results were received.
#     Col. 2: MD5 hash of participant's IP address.
#     Col. 3: Controller name.
#     Col. 4: Item number.
#     Col. 5: Element number.
#     Col. 6: Type.
#     Col. 7: Group.
#     Col. 8: html2.
#     Col. 9: startValue.
#     Col. 10: endValue.
#     Col. 11: value.
1566388751,105cc01dded11b3751921349e8c8447f,MultiSlider,46,0,EveryNot.Some.AllBias,13,<b> Some but not all </b> of the books have been cataloged,0.00,100.00,92.83
1566388751,105cc01dded11b3751921349e8c8447f,MultiSlider,46,0,EveryNot.Some.AllBias,13,<b> All </b> of the books have been cataloged,0.00,100.00,71.83
# The lines below this comment are in groups of 2.
# The formats of the lines in each of these groups are as follows:
#
# Line 1:
#     Col. 1: Time results were received.
#     Col. 2: MD5 hash of participant's IP address.
#     Col. 3: Controller name.
#     Col. 4: Item number.
#     Col. 5: Element number.
#     Col. 6: Type.
#     Col. 7: Group.
#     Col. 8: html.
#     Col. 9: startValue.
#     Col. 10: endValue.
#     Col. 11: value.
# Line 2:
#     Col. 1: Time results were received.
#     Col. 2: MD5 hash of participant's IP address.
#     Col. 3: Controller name.
#     Col. 4: Item number.
#     Col. 5: Element number.
#     Col. 6: Type.
#     Col. 7: Group.
#     Col. 8: Sentence (or sentence MD5).
1566388751,105cc01dded11b3751921349e8c8447f,MultiSlider,46,0,EveryNot.Some.AllBias,13,<b> None </b> of the books have been cataloged,0.00,100.00,69.50
1566388751,105cc01dded11b3751921349e8c8447f,MultiSlider,64,0,EveryNot.None.AllBias,19,Bill is an average runner who tried to break five Guinness records of running. At the day of the challenge%2C he swore that he was going to get all the records under his belt.
# The lines below this comment are in groups of 2.
# The formats of the lines in each of these groups are as follows:
#
# Line 1:
#     Col. 1: Time results were received.
#     Col. 2: MD5 hash of participant's IP address.
#     Col. 3: Controller name.
#     Col. 4: Item number.
#     Col. 5: Element number.
#     Col. 6: Type.
#     Col. 7: Group.
#     Col. 8: Sentence (or sentence MD5).
# Line 2:
#     Col. 1: Time results were received.
#     Col. 2: MD5 hash of participant's IP address.
#     Col. 3: Controller name.
#     Col. 4: Item number.
#     Col. 5: Element number.
#     Col. 6: Type.
#     Col. 7: Group.
#     Col. 8: html1.
#     Col. 9: startValue.
#     Col. 10: endValue.
#     Col. 11: value.
1566388751,105cc01dded11b3751921349e8c8447f,MultiSlider,64,0,EveryNot.None.AllBias,19,How likely are the following situations?
1566388751,105cc01dded11b3751921349e8c8447f,MultiSlider,64,0,EveryNot.None.AllBias,19,<b> Some but not all </b> of the records were broken in the end,0.00,100.00,39.17
# Columns below this comment are as follows:
# 1. Time results were received.
# 2. MD5 hash of participant's IP address.
# 3. Controller name.
# 4. Item number.
# 5. Element number.
# 6. Type.
# 7. Group.
# 8. html2.
# 9. startValue.
# 10. endValue.
# 11. value.
1566388751,105cc01dded11b3751921349e8c8447f,MultiSlider,64,0,EveryNot.None.AllBias,19,<b> All </b> of the records were broken in the end,0.00,100.00,93.17
1566388751,105cc01dded11b3751921349e8c8447f,MultiSlider,64,0,EveryNot.None.AllBias,19,<b> All </b> of the records were broken in the end,0.00,100.00,99.50
# The lines below this comment are in groups of 2.
# The formats of the lines in each of these groups are as follows:
#
# Line 1:
#     Col. 1: Time results were received.
#     Col. 2: MD5 hash of participant's IP address.
#     Col. 3: Controller name.
#     Col. 4: Item number.
#     Col. 5: Element number.
#     Col. 6: Type.
#     Col. 7: Group.
#     Col. 8: html.
#     Col. 9: startValue.
#     Col. 10: endValue.
#     Col. 11: value.
# Line 2:
#     Col. 1: Time results were received.
#     Col. 2: MD5 hash of participant's IP address.
#     Col. 3: Controller name.
#     Col. 4: Item number.
#     Col. 5: Element number.
#     Col. 6: Type.
#     Col. 7: Group.
#     Col. 8: Sentence (or sentence MD5).
1566388751,105cc01dded11b3751921349e8c8447f,MultiSlider,64,0,EveryNot.None.AllBias,19,<b> None </b> of the records were broken in the end,0.00,100.00,63.17
1566388751,105cc01dded11b3751921349e8c8447f,MultiSlider,42,0,EveryNot.Some.HowManyBias,12,Sue and Marc went to a two-day science exhibition. On the first day%2C the organizers approached them and asked about the number of booths they had checked off the map so far.
# The lines below this comment are in groups of 2.
# The formats of the lines in each of these groups are as follows:
#
# Line 1:
#     Col. 1: Time results were received.
#     Col. 2: MD5 hash of participant's IP address.
#     Col. 3: Controller name.
#     Col. 4: Item number.
#     Col. 5: Element number.
#     Col. 6: Type.
#     Col. 7: Group.
#     Col. 8: Sentence (or sentence MD5).
# Line 2:
#     Col. 1: Time results were received.
#     Col. 2: MD5 hash of participant's IP address.
#     Col. 3: Controller name.
#     Col. 4: Item number.
#     Col. 5: Element number.
#     Col. 6: Type.
#     Col. 7: Group.
#     Col. 8: html1.
#     Col. 9: startValue.
#     Col. 10: endValue.
#     Col. 11: value.
1566388751,105cc01dded11b3751921349e8c8447f,MultiSlider,42,0,EveryNot.Some.HowManyBias,12,How likely are the following situations?
1566388751,105cc01dded11b3751921349e8c8447f,MultiSlider,42,0,EveryNot.Some.HowManyBias,12,Sue and Marc have visited<b> all of </b>the booths so far,0.00,100.00,17.17
# Columns below this comment are as follows:
# 1. Time results were received.
# 2. MD5 hash of participant's IP address.
# 3. Controller name.
# 4. Item number.
# 5. Element number.
# 6. Type.
# 7. Group.
# 8. html1.
# 9. startValue.
# 10. endValue.
# 11. value.
1566388751,105cc01dded11b3751921349e8c8447f,MultiSlider,42,0,EveryNot.Some.HowManyBias,12,Sue and Marc have visited<b> all of </b>the booths so far,0.00,100.00,8.83
1566388751,105cc01dded11b3751921349e8c8447f,MultiSlider,42,0,EveryNot.Some.HowManyBias,12,Sue and Marc have visited<b> all of </b>the booths so far,0.00,100.00,1.17
# The lines below this comment are in groups of 2.
# The formats of the lines in each of these groups are as follows:
#
# Line 1:
#     Col. 1: Time results were received.
#     Col. 2: MD5 hash of participant's IP address.
#     Col. 3: Controller name.
#     Col. 4: Item number.
#     Col. 5: Element number.
#     Col. 6: Type.
#     Col. 7: Group.
#     Col. 8: html2.
#     Col. 9: startValue.
#     Col. 10: endValue.
#     Col. 11: value.
# Line 2:
#     Col. 1: Time results were received.
#     Col. 2: MD5 hash of participant's IP address.
#     Col. 3: Controller name.
#     Col. 4: Item number.
#     Col. 5: Element number.
#     Col. 6: Type.
#     Col. 7: Group.
#     Col. 8: html.
#     Col. 9: startValue.
#     Col. 10: endValue.
#     Col. 11: value.
1566388751,105cc01dded11b3751921349e8c8447f,MultiSlider,42,0,EveryNot.Some.HowManyBias,12,Sue and Marc haven't visited<b> any of </b>the booths so far,0.00,100.00,2.17
1566388751,105cc01dded11b3751921349e8c8447f,MultiSlider,42,0,EveryNot.Some.HowManyBias,12,Sue and Marc have visited<b> some but not all of </b>the booths so far,0.00,100.00,94.83
# Columns below this comment are as follows:
# 1. Time results were received.
# 2. MD5 hash of participant's IP address.
# 3. Controller name.
# 4. Item number.
# 5. Element number.
# 6. Type.
# 7. Group.
# 8. Sentence (or sentence MD5).
1566388751,105cc01dded11b3751921349e8c8447f,MultiSlider,68,0,EveryNot.None.NoneBias,20,Helena is a mediocre athlete who made a resolution to win three Olympic medals this year. Her coach thought that she would be honored if she could win even a single medal.
1566388751,105cc01dded11b3751921349e8c8447f,MultiSlider,68,0,EveryNot.None.NoneBias,20,How likely are the following situations?
# Columns below this comment are as follows:
# 1. Time results were received.
# 2. MD5 hash of participant's IP address.
# 3. Controller name.
# 4. Item number.
# 5. Element number.
# 6. Type.
# 7. Group.
# 8. html1.
# 9. startValue.
# 10. endValue.
# 11. value.
1566388751,105cc01dded11b3751921349e8c8447f,MultiSlider,68,0,EveryNot.None.NoneBias,20, She didn't win<b> any of </b>the medals,0.00,100.00,96.83
1566388751,105cc01dded11b3751921349e8c8447f,MultiSlider,68,0,EveryNot.None.NoneBias,20, She didn't win<b> any of </b>the medals,0.00,100.00,53.17
1566388751,105cc01dded11b3751921349e8c8447f,MultiSlider,68,0,EveryNot.None.NoneBias,20, She didn't win<b> any of </b>the medals,0.00,100.00,43.83
# The lines below this comment are in groups of 2.
# The formats of the lines in each of these groups are as follows:
#
# Line 1:
#     Col. 1: Time results were received.
#     Col. 2: MD5 hash of participant's IP address.
#     Col. 3: Controller name.
#     Col. 4: Item number.
#     Col. 5: Element number.
#     Col. 6: Type.
#     Col. 7: Group.
#     Col. 8: html2.
#     Col. 9: startValue.
#     Col. 10: endValue.
#     Col. 11: value.
# Line 2:
#     Col. 1: Time results were received.
#     Col. 2: MD5 hash of participant's IP address.
#     Col. 3: Controller name.
#     Col. 4: Item number.
#     Col. 5: Element number.
#     Col. 6: Type.
#     Col. 7: Group.
#     Col. 8: html.
#     Col. 9: startValue.
#     Col. 10: endValue.
#     Col. 11: value.
1566388751,105cc01dded11b3751921349e8c8447f,MultiSlider,68,0,EveryNot.None.NoneBias,20, She won<b> some but not all of </b>the medals,0.00,100.00,96.17
1566388751,105cc01dded11b3751921349e8c8447f,MultiSlider,68,0,EveryNot.None.NoneBias,20, She won<b> all of </b>the medals,0.00,100.00,4.83
# Columns below this comment are as follows:
# 1. Time results were received.
# 2. MD5 hash of participant's IP address.
# 3. Controller name.
# 4. Item number.
# 5. Element number.
# 6. Type.
# 7. Group.
# 8. Sentence (or sentence MD5).
1566388751,105cc01dded11b3751921349e8c8447f,MultiSlider,23,0,EveryNot.All.NoneBias,5,Paula is a dedicated store assistant. A week ago%2C five boxes of new products had arrived at the store. Her manager asked if she had begun opening the boxes.
1566388751,105cc01dded11b3751921349e8c8447f,MultiSlider,23,0,EveryNot.All.NoneBias,5,How likely are the following situations?
# The lines below this comment are in groups of 2.
# The formats of the lines in each of these groups are as follows:
#
# Line 1:
#     Col. 1: Time results were received.
#     Col. 2: MD5 hash of participant's IP address.
#     Col. 3: Controller name.
#     Col. 4: Item number.
#     Col. 5: Element number.
#     Col. 6: Type.
#     Col. 7: Group.
#     Col. 8: html1.
#     Col. 9: startValue.
#     Col. 10: endValue.
#     Col. 11: value.
# Line 2:
#     Col. 1: Time results were received.
#     Col. 2: MD5 hash of participant's IP address.
#     Col. 3: Controller name.
#     Col. 4: Item number.
#     Col. 5: Element number.
#     Col. 6: Type.
#     Col. 7: Group.
#     Col. 8: html2.
#     Col. 9: startValue.
#     Col. 10: endValue.
#     Col. 11: value.
1566388751,105cc01dded11b3751921349e8c8447f,MultiSlider,23,0,EveryNot.All.NoneBias,5,<b> None </b> of the boxes have been opened,0.00,100.00,1.17
1566388751,105cc01dded11b3751921349e8c8447f,MultiSlider,23,0,EveryNot.All.NoneBias,5,<b> Some but not all </b> of the boxes have been opened,0.00,100.00,33.50
# The lines below this comment are in groups of 2.
# The formats of the lines in each of these groups are as follows:
#
# Line 1:
#     Col. 1: Time results were received.
#     Col. 2: MD5 hash of participant's IP address.
#     Col. 3: Controller name.
#     Col. 4: Item number.
#     Col. 5: Element number.
#     Col. 6: Type.
#     Col. 7: Group.
#     Col. 8: html.
#     Col. 9: startValue.
#     Col. 10: endValue.
#     Col. 11: value.
# Line 2:
#     Col. 1: Time results were received.
#     Col. 2: MD5 hash of participant's IP address.
#     Col. 3: Controller name.
#     Col. 4: Item number.
#     Col. 5: Element number.
#     Col. 6: Type.
#     Col. 7: Group.
#     Col. 8: Sentence (or sentence MD5).
1566388751,105cc01dded11b3751921349e8c8447f,MultiSlider,23,0,EveryNot.All.NoneBias,5,<b> All </b> of the boxes have been opened,0.00,100.00,96.83
1566388751,105cc01dded11b3751921349e8c8447f,MultiSlider,73,0,EveryNot.None.AllBias,22,The unsuccessful broker has made some risky investments in the stock market. He nervously stared at the monitor%2C because his house may be foreclosed unless all of his investments work out.
# The lines below this comment are in groups of 2.
# The formats of the lines in each of these groups are as follows:
#
# Line 1:
#     Col. 1: Time results were received.
#     Col. 2: MD5 hash of participant's IP address.
#     Col. 3: Controller name.
#     Col. 4: Item number.
#     Col. 5: Element number.
#     Col. 6: Type.
#     Col. 7: Group.
#     Col. 8: Sentence (or sentence MD5).
# Line 2:
#     Col. 1: Time results were received.
#     Col. 2: MD5 hash of participant's IP address.
#     Col. 3: Controller name.
#     Col. 4: Item number.
#     Col. 5: Element number.
#     Col. 6: Type.
#     Col. 7: Group.
#     Col. 8: html1.
#     Col. 9: startValue.
#     Col. 10: endValue.
#     Col. 11: value.
1566388751,105cc01dded11b3751921349e8c8447f,MultiSlider,73,0,EveryNot.None.AllBias,22,How likely are the following situations?
1566388751,105cc01dded11b3751921349e8c8447f,MultiSlider,73,0,EveryNot.None.AllBias,22,<b> Some but not all </b> of the investment paid off,0.00,100.00,0.17
# The lines below this comment are in groups of 2.
# The formats of the lines in each of these groups are as follows:
#
# Line 1:
#     Col. 1: Time results were received.
#     Col. 2: MD5 hash of participant's IP address.
#     Col. 3: Controller name.
#     Col. 4: Item number.
#     Col. 5: Element number.
#     Col. 6: Type.
#     Col. 7: Group.
#     Col. 8: html2.
#     Col. 9: startValue.
#     Col. 10: endValue.
#     Col. 11: value.
# Line 2:
#     Col. 1: Time results were received.
#     Col. 2: MD5 hash of participant's IP address.
#     Col. 3: Controller name.
#     Col. 4: Item number.
#     Col. 5: Element number.
#     Col. 6: Type.
#     Col. 7: Group.
#     Col. 8: html.
#     Col. 9: startValue.
#     Col. 10: endValue.
#     Col. 11: value.
1566388751,105cc01dded11b3751921349e8c8447f,MultiSlider,73,0,EveryNot.None.AllBias,22,<b> All </b> of the investment paid off,0.00,100.00,96.50
1566388751,105cc01dded11b3751921349e8c8447f,MultiSlider,73,0,EveryNot.None.AllBias,22,<b> None </b> of the investment paid off,0.00,100.00,0.00
# Columns below this comment are as follows:
# 1. Time results were received.
# 2. MD5 hash of participant's IP address.
# 3. Controller name.
# 4. Item number.
# 5. Element number.
# 6. Type.
# 7. Group.
# 8. Sentence (or sentence MD5).
1566388751,105cc01dded11b3751921349e8c8447f,MultiSlider,55,0,EveryNot.Some.AllBias,16,A tech start-up is facing some financial issues. During an HR meeting%2C the board debated whether they had to lay off all of their employees.
1566388751,105cc01dded11b3751921349e8c8447f,MultiSlider,55,0,EveryNot.Some.AllBias,16,How likely are the following situations?
# The lines below this comment are in groups of 2.
# The formats of the lines in each of these groups are as follows:
#
# Line 1:
#     Col. 1: Time results were received.
#     Col. 2: MD5 hash of participant's IP address.
#     Col. 3: Controller name.
#     Col. 4: Item number.
#     Col. 5: Element number.
#     Col. 6: Type.
#     Col. 7: Group.
#     Col. 8: html1.
#     Col. 9: startValue.
#     Col. 10: endValue.
#     Col. 11: value.
# Line 2:
#     Col. 1: Time results were received.
#     Col. 2: MD5 hash of participant's IP address.
#     Col. 3: Controller name.
#     Col. 4: Item number.
#     Col. 5: Element number.
#     Col. 6: Type.
#     Col. 7: Group.
#     Col. 8: html2.
#     Col. 9: startValue.
#     Col. 10: endValue.
#     Col. 11: value.
1566388751,105cc01dded11b3751921349e8c8447f,MultiSlider,55,0,EveryNot.Some.AllBias,16,<b> Some but not all </b> of the employees will be fired,0.00,100.00,96.17
1566388751,105cc01dded11b3751921349e8c8447f,MultiSlider,55,0,EveryNot.Some.AllBias,16,<b> All </b> of the employees will be fired,0.00,100.00,2.50
# The lines below this comment are in groups of 2.
# The formats of the lines in each of these groups are as follows:
#
# Line 1:
#     Col. 1: Time results were received.
#     Col. 2: MD5 hash of participant's IP address.
#     Col. 3: Controller name.
#     Col. 4: Item number.
#     Col. 5: Element number.
#     Col. 6: Type.
#     Col. 7: Group.
#     Col. 8: html.
#     Col. 9: startValue.
#     Col. 10: endValue.
#     Col. 11: value.
# Line 2:
#     Col. 1: Time results were received.
#     Col. 2: MD5 hash of participant's IP address.
#     Col. 3: Controller name.
#     Col. 4: Item number.
#     Col. 5: Element number.
#     Col. 6: Type.
#     Col. 7: Group.
#     Col. 8: Sentence (or sentence MD5).
1566388751,105cc01dded11b3751921349e8c8447f,MultiSlider,55,0,EveryNot.Some.AllBias,16,<b> None </b> of the employees will be fired,0.00,100.00,0.83
1566388751,105cc01dded11b3751921349e8c8447f,MultiSlider,51,0,EveryNot.Some.HowManyBias,15,Barney has been submitting recipes to a famous cooking website for some time now. His partner asked how successful his submissions had been.
# The lines below this comment are in groups of 2.
# The formats of the lines in each of these groups are as follows:
#
# Line 1:
#     Col. 1: Time results were received.
#     Col. 2: MD5 hash of participant's IP address.
#     Col. 3: Controller name.
#     Col. 4: Item number.
#     Col. 5: Element number.
#     Col. 6: Type.
#     Col. 7: Group.
#     Col. 8: Sentence (or sentence MD5).
# Line 2:
#     Col. 1: Time results were received.
#     Col. 2: MD5 hash of participant's IP address.
#     Col. 3: Controller name.
#     Col. 4: Item number.
#     Col. 5: Element number.
#     Col. 6: Type.
#     Col. 7: Group.
#     Col. 8: html1.
#     Col. 9: startValue.
#     Col. 10: endValue.
#     Col. 11: value.
1566388751,105cc01dded11b3751921349e8c8447f,MultiSlider,51,0,EveryNot.Some.HowManyBias,15,How likely are the following situations?
1566388751,105cc01dded11b3751921349e8c8447f,MultiSlider,51,0,EveryNot.Some.HowManyBias,15,<b> All </b> of Barney's submissions have been published,0.00,100.00,0.17
# The lines below this comment are in groups of 2.
# The formats of the lines in each of these groups are as follows:
#
# Line 1:
#     Col. 1: Time results were received.
#     Col. 2: MD5 hash of participant's IP address.
#     Col. 3: Controller name.
#     Col. 4: Item number.
#     Col. 5: Element number.
#     Col. 6: Type.
#     Col. 7: Group.
#     Col. 8: html2.
#     Col. 9: startValue.
#     Col. 10: endValue.
#     Col. 11: value.
# Line 2:
#     Col. 1: Time results were received.
#     Col. 2: MD5 hash of participant's IP address.
#     Col. 3: Controller name.
#     Col. 4: Item number.
#     Col. 5: Element number.
#     Col. 6: Type.
#     Col. 7: Group.
#     Col. 8: html.
#     Col. 9: startValue.
#     Col. 10: endValue.
#     Col. 11: value.
1566388751,105cc01dded11b3751921349e8c8447f,MultiSlider,51,0,EveryNot.Some.HowManyBias,15,<b> None </b> of Barney's submissions have been published,0.00,100.00,97.17
1566388751,105cc01dded11b3751921349e8c8447f,MultiSlider,51,0,EveryNot.Some.HowManyBias,15,<b> Some but not all </b> of Barney's submissions have been published,0.00,100.00,96.50
# Columns below this comment are as follows:
# 1. Time results were received.
# 2. MD5 hash of participant's IP address.
# 3. Controller name.
# 4. Item number.
# 5. Element number.
# 6. Type.
# 7. Group.
# 8. Sentence (or sentence MD5).
1566388751,105cc01dded11b3751921349e8c8447f,MultiSlider,69,0,EveryNot.None.HowManyBias,21,Julia is a straight-A student. This semester%2C she enrolled for the easiest classes. After the semester%2C her mother phoned her to find out how her daughter had performed this semester.
1566388751,105cc01dded11b3751921349e8c8447f,MultiSlider,69,0,EveryNot.None.HowManyBias,21,How likely are the following situations?
# The lines below this comment are in groups of 2.
# The formats of the lines in each of these groups are as follows:
#
# Line 1:
#     Col. 1: Time results were received.
#     Col. 2: MD5 hash of participant's IP address.
#     Col. 3: Controller name.
#     Col. 4: Item number.
#     Col. 5: Element number.
#     Col. 6: Type.
#     Col. 7: Group.
#     Col. 8: html1.
#     Col. 9: startValue.
#     Col. 10: endValue.
#     Col. 11: value.
# Line 2:
#     Col. 1: Time results were received.
#     Col. 2: MD5 hash of participant's IP address.
#     Col. 3: Controller name.
#     Col. 4: Item number.
#     Col. 5: Element number.
#     Col. 6: Type.
#     Col. 7: Group.
#     Col. 8: html2.
#     Col. 9: startValue.
#     Col. 10: endValue.
#     Col. 11: value.
1566388751,105cc01dded11b3751921349e8c8447f,MultiSlider,69,0,EveryNot.None.HowManyBias,21, Julia failed<b> all of </b>the classes,0.00,100.00,1.17
1566388751,105cc01dded11b3751921349e8c8447f,MultiSlider,69,0,EveryNot.None.HowManyBias,21, Julia didn't fail<b> any of </b>the classes,0.00,100.00,95.83
# The lines below this comment are in groups of 2.
# The formats of the lines in each of these groups are as follows:
#
# Line 1:
#     Col. 1: Time results were received.
#     Col. 2: MD5 hash of participant's IP address.
#     Col. 3: Controller name.
#     Col. 4: Item number.
#     Col. 5: Element number.
#     Col. 6: Type.
#     Col. 7: Group.
#     Col. 8: html.
#     Col. 9: startValue.
#     Col. 10: endValue.
#     Col. 11: value.
# Line 2:
#     Col. 1: Time results were received.
#     Col. 2: MD5 hash of participant's IP address.
#     Col. 3: Controller name.
#     Col. 4: Item number.
#     Col. 5: Element number.
#     Col. 6: Type.
#     Col. 7: Group.
#     Col. 8: Sentence (or sentence MD5).
1566388751,105cc01dded11b3751921349e8c8447f,MultiSlider,69,0,EveryNot.None.HowManyBias,21, Julia failed<b> some but not all of </b>the classes,0.00,100.00,0.00
1566388751,105cc01dded11b3751921349e8c8447f,MultiSlider,77,0,EveryNot.None.NoneBias,23,The hospital has the best doctors in the country. One day%2C five patients had to be operated on for fractures in arms and legs. Afterwards%2C a news reporter asked whether any of the patients had been successfully treated.
# The lines below this comment are in groups of 2.
# The formats of the lines in each of these groups are as follows:
#
# Line 1:
#     Col. 1: Time results were received.
#     Col. 2: MD5 hash of participant's IP address.
#     Col. 3: Controller name.
#     Col. 4: Item number.
#     Col. 5: Element number.
#     Col. 6: Type.
#     Col. 7: Group.
#     Col. 8: Sentence (or sentence MD5).
# Line 2:
#     Col. 1: Time results were received.
#     Col. 2: MD5 hash of participant's IP address.
#     Col. 3: Controller name.
#     Col. 4: Item number.
#     Col. 5: Element number.
#     Col. 6: Type.
#     Col. 7: Group.
#     Col. 8: html1.
#     Col. 9: startValue.
#     Col. 10: endValue.
#     Col. 11: value.
1566388751,105cc01dded11b3751921349e8c8447f,MultiSlider,77,0,EveryNot.None.NoneBias,23,How likely are the following situations?
1566388751,105cc01dded11b3751921349e8c8447f,MultiSlider,77,0,EveryNot.None.NoneBias,23,<b> None </b> of the operations were successful,0.00,100.00,1.50
# The lines below this comment are in groups of 2.
# The formats of the lines in each of these groups are as follows:
#
# Line 1:
#     Col. 1: Time results were received.
#     Col. 2: MD5 hash of participant's IP address.
#     Col. 3: Controller name.
#     Col. 4: Item number.
#     Col. 5: Element number.
#     Col. 6: Type.
#     Col. 7: Group.
#     Col. 8: html2.
#     Col. 9: startValue.
#     Col. 10: endValue.
#     Col. 11: value.
# Line 2:
#     Col. 1: Time results were received.
#     Col. 2: MD5 hash of participant's IP address.
#     Col. 3: Controller name.
#     Col. 4: Item number.
#     Col. 5: Element number.
#     Col. 6: Type.
#     Col. 7: Group.
#     Col. 8: html.
#     Col. 9: startValue.
#     Col. 10: endValue.
#     Col. 11: value.
1566388751,105cc01dded11b3751921349e8c8447f,MultiSlider,77,0,EveryNot.None.NoneBias,23,<b> Some but not all </b> of the operations were successful,0.00,100.00,99.17
1566388751,105cc01dded11b3751921349e8c8447f,MultiSlider,77,0,EveryNot.None.NoneBias,23,<b> All </b> of the operations were successful,0.00,100.00,30.17
# Columns below this comment are as follows:
# 1. Time results were received.
# 2. MD5 hash of participant's IP address.
# 3. Controller name.
# 4. Item number.
# 5. Element number.
# 6. Type.
# 7. Group.
# 8. Sentence (or sentence MD5).
1566388751,105cc01dded11b3751921349e8c8447f,MultiSlider,50,0,EveryNot.Some.NoneBias,14,Roy recently started a career as a professional gamer. A journalist interviewed him%2C and asked if he had already been invited to any of the five Major League Gaming tournaments.
1566388751,105cc01dded11b3751921349e8c8447f,MultiSlider,50,0,EveryNot.Some.NoneBias,14,How likely are the following situations?
# The lines below this comment are in groups of 2.
# The formats of the lines in each of these groups are as follows:
#
# Line 1:
#     Col. 1: Time results were received.
#     Col. 2: MD5 hash of participant's IP address.
#     Col. 3: Controller name.
#     Col. 4: Item number.
#     Col. 5: Element number.
#     Col. 6: Type.
#     Col. 7: Group.
#     Col. 8: html1.
#     Col. 9: startValue.
#     Col. 10: endValue.
#     Col. 11: value.
# Line 2:
#     Col. 1: Time results were received.
#     Col. 2: MD5 hash of participant's IP address.
#     Col. 3: Controller name.
#     Col. 4: Item number.
#     Col. 5: Element number.
#     Col. 6: Type.
#     Col. 7: Group.
#     Col. 8: html2.
#     Col. 9: startValue.
#     Col. 10: endValue.
#     Col. 11: value.
1566388751,105cc01dded11b3751921349e8c8447f,MultiSlider,50,0,EveryNot.Some.NoneBias,14, Roy hasn't been invited to<b> any of </b>the Major League Gaming tournaments,0.00,100.00,97.83
1566388751,105cc01dded11b3751921349e8c8447f,MultiSlider,50,0,EveryNot.Some.NoneBias,14, Roy has been invited to<b> some but not all of </b>the Major League Gaming tournaments,0.00,100.00,97.50
# The lines below this comment are in groups of 2.
# The formats of the lines in each of these groups are as follows:
#
# Line 1:
#     Col. 1: Time results were received.
#     Col. 2: MD5 hash of participant's IP address.
#     Col. 3: Controller name.
#     Col. 4: Item number.
#     Col. 5: Element number.
#     Col. 6: Type.
#     Col. 7: Group.
#     Col. 8: html.
#     Col. 9: startValue.
#     Col. 10: endValue.
#     Col. 11: value.
# Line 2:
#     Col. 1: Time results were received.
#     Col. 2: MD5 hash of participant's IP address.
#     Col. 3: Controller name.
#     Col. 4: Item number.
#     Col. 5: Element number.
#     Col. 6: Type.
#     Col. 7: Group.
#     Col. 8: Sentence (or sentence MD5).
1566388751,105cc01dded11b3751921349e8c8447f,MultiSlider,50,0,EveryNot.Some.NoneBias,14, Roy has been invited to<b> all of </b>the Major League Gaming tournaments,0.00,100.00,1.83
1566388751,105cc01dded11b3751921349e8c8447f,MultiSlider,59,0,EveryNot.None.NoneBias,17,Jack is an incompetent homicide detective trying to solve three recent murders. His boss tells him that the newspapers will be all over him if he fails to solve any of these murders.
# The lines below this comment are in groups of 2.
# The formats of the lines in each of these groups are as follows:
#
# Line 1:
#     Col. 1: Time results were received.
#     Col. 2: MD5 hash of participant's IP address.
#     Col. 3: Controller name.
#     Col. 4: Item number.
#     Col. 5: Element number.
#     Col. 6: Type.
#     Col. 7: Group.
#     Col. 8: Sentence (or sentence MD5).
# Line 2:
#     Col. 1: Time results were received.
#     Col. 2: MD5 hash of participant's IP address.
#     Col. 3: Controller name.
#     Col. 4: Item number.
#     Col. 5: Element number.
#     Col. 6: Type.
#     Col. 7: Group.
#     Col. 8: html1.
#     Col. 9: startValue.
#     Col. 10: endValue.
#     Col. 11: value.
1566388751,105cc01dded11b3751921349e8c8447f,MultiSlider,59,0,EveryNot.None.NoneBias,17,How likely are the following situations?
1566388751,105cc01dded11b3751921349e8c8447f,MultiSlider,59,0,EveryNot.None.NoneBias,17,<b> None </b> of the cases will be solved,0.00,100.00,94.50
# The lines below this comment are in groups of 2.
# The formats of the lines in each of these groups are as follows:
#
# Line 1:
#     Col. 1: Time results were received.
#     Col. 2: MD5 hash of participant's IP address.
#     Col. 3: Controller name.
#     Col. 4: Item number.
#     Col. 5: Element number.
#     Col. 6: Type.
#     Col. 7: Group.
#     Col. 8: html2.
#     Col. 9: startValue.
#     Col. 10: endValue.
#     Col. 11: value.
# Line 2:
#     Col. 1: Time results were received.
#     Col. 2: MD5 hash of participant's IP address.
#     Col. 3: Controller name.
#     Col. 4: Item number.
#     Col. 5: Element number.
#     Col. 6: Type.
#     Col. 7: Group.
#     Col. 8: html.
#     Col. 9: startValue.
#     Col. 10: endValue.
#     Col. 11: value.
1566388751,105cc01dded11b3751921349e8c8447f,MultiSlider,59,0,EveryNot.None.NoneBias,17,<b> Some but not all </b> of the cases will be solved,0.00,100.00,35.17
1566388751,105cc01dded11b3751921349e8c8447f,MultiSlider,59,0,EveryNot.None.NoneBias,17,<b> All </b> of the cases will be solved,0.00,100.00,3.50
# Columns below this comment are as follows:
# 1. Time results were received.
# 2. MD5 hash of participant's IP address.
# 3. Controller name.
# 4. Item number.
# 5. Element number.
# 6. Type.
# 7. Group.
# 8. Sentence (or sentence MD5).
1566388751,105cc01dded11b3751921349e8c8447f,MultiSlider,33,0,EveryNot.Some.HowManyBias,9,The teacher has just finished correcting exams. The dean wants an update because the amount of federal funds the school receives depends on the number of students who passed.
1566388751,105cc01dded11b3751921349e8c8447f,MultiSlider,33,0,EveryNot.Some.HowManyBias,9,How likely are the following situations?
# Columns below this comment are as follows:
# 1. Time results were received.
# 2. MD5 hash of participant's IP address.
# 3. Controller name.
# 4. Item number.
# 5. Element number.
# 6. Type.
# 7. Group.
# 8. html1.
# 9. startValue.
# 10. endValue.
# 11. value.
1566388751,105cc01dded11b3751921349e8c8447f,MultiSlider,33,0,EveryNot.Some.HowManyBias,9,<b> All </b> of the students passed the exam,0.00,100.00,59.50
1566388751,105cc01dded11b3751921349e8c8447f,MultiSlider,33,0,EveryNot.Some.HowManyBias,9,<b> All </b> of the students passed the exam,0.00,100.00,26.50
# The lines below this comment are in groups of 2.
# The formats of the lines in each of these groups are as follows:
#
# Line 1:
#     Col. 1: Time results were received.
#     Col. 2: MD5 hash of participant's IP address.
#     Col. 3: Controller name.
#     Col. 4: Item number.
#     Col. 5: Element number.
#     Col. 6: Type.
#     Col. 7: Group.
#     Col. 8: html2.
#     Col. 9: startValue.
#     Col. 10: endValue.
#     Col. 11: value.
# Line 2:
#     Col. 1: Time results were received.
#     Col. 2: MD5 hash of participant's IP address.
#     Col. 3: Controller name.
#     Col. 4: Item number.
#     Col. 5: Element number.
#     Col. 6: Type.
#     Col. 7: Group.
#     Col. 8: html.
#     Col. 9: startValue.
#     Col. 10: endValue.
#     Col. 11: value.
1566388751,105cc01dded11b3751921349e8c8447f,MultiSlider,33,0,EveryNot.Some.HowManyBias,9,<b> None </b> of the students passed the exam,0.00,100.00,3.17
1566388751,105cc01dded11b3751921349e8c8447f,MultiSlider,33,0,EveryNot.Some.HowManyBias,9,<b> Some but not all </b> of the students passed the exam,0.00,100.00,96.50
# Columns below this comment are as follows:
# 1. Time results were received.
# 2. MD5 hash of participant's IP address.
# 3. Controller name.
# 4. Item number.
# 5. Element number.
# 6. Type.
# 7. Group.
# 8. Sentence (or sentence MD5).
1566388751,105cc01dded11b3751921349e8c8447f,MultiSlider,78,0,EveryNot.None.HowManyBias,24,Wayne is a diligent therapist who is always there for his patients. Today%2C he has a minor flu. His assistant asks how many appointments she has to cancel before he can come in.
1566388751,105cc01dded11b3751921349e8c8447f,MultiSlider,78,0,EveryNot.None.HowManyBias,24,How likely are the following situations?
# The lines below this comment are in groups of 2.
# The formats of the lines in each of these groups are as follows:
#
# Line 1:
#     Col. 1: Time results were received.
#     Col. 2: MD5 hash of participant's IP address.
#     Col. 3: Controller name.
#     Col. 4: Item number.
#     Col. 5: Element number.
#     Col. 6: Type.
#     Col. 7: Group.
#     Col. 8: html1.
#     Col. 9: startValue.
#     Col. 10: endValue.
#     Col. 11: value.
# Line 2:
#     Col. 1: Time results were received.
#     Col. 2: MD5 hash of participant's IP address.
#     Col. 3: Controller name.
#     Col. 4: Item number.
#     Col. 5: Element number.
#     Col. 6: Type.
#     Col. 7: Group.
#     Col. 8: html2.
#     Col. 9: startValue.
#     Col. 10: endValue.
#     Col. 11: value.
1566388751,105cc01dded11b3751921349e8c8447f,MultiSlider,78,0,EveryNot.None.HowManyBias,24,<b> All </b> of the appointments will be cancelled,0.00,100.00,30.83
1566388751,105cc01dded11b3751921349e8c8447f,MultiSlider,78,0,EveryNot.None.HowManyBias,24,<b> None </b> of the appointments will be cancelled,0.00,100.00,1.83
# The lines below this comment are in groups of 2.
# The formats of the lines in each of these groups are as follows:
#
# Line 1:
#     Col. 1: Time results were received.
#     Col. 2: MD5 hash of participant's IP address.
#     Col. 3: Controller name.
#     Col. 4: Item number.
#     Col. 5: Element number.
#     Col. 6: Type.
#     Col. 7: Group.
#     Col. 8: html.
#     Col. 9: startValue.
#     Col. 10: endValue.
#     Col. 11: value.
# Line 2:
#     Col. 1: Time results were received.
#     Col. 2: MD5 hash of participant's IP address.
#     Col. 3: Controller name.
#     Col. 4: Item number.
#     Col. 5: Element number.
#     Col. 6: Type.
#     Col. 7: Group.
#     Col. 8: Sentence (or sentence MD5).
1566388751,105cc01dded11b3751921349e8c8447f,MultiSlider,78,0,EveryNot.None.HowManyBias,24,<b> Some but not all </b> of the appointments will be cancelled,0.00,100.00,97.83
1566388751,105cc01dded11b3751921349e8c8447f,MultiSlider,60,0,EveryNot.None.HowManyBias,18,Paul lives on a sheep farm his parents bought for him%2C but plays video games all day. His parents called him to remind him that his living situation is dependent on the number of sheep he sells.
# The lines below this comment are in groups of 2.
# The formats of the lines in each of these groups are as follows:
#
# Line 1:
#     Col. 1: Time results were received.
#     Col. 2: MD5 hash of participant's IP address.
#     Col. 3: Controller name.
#     Col. 4: Item number.
#     Col. 5: Element number.
#     Col. 6: Type.
#     Col. 7: Group.
#     Col. 8: Sentence (or sentence MD5).
# Line 2:
#     Col. 1: Time results were received.
#     Col. 2: MD5 hash of participant's IP address.
#     Col. 3: Controller name.
#     Col. 4: Item number.
#     Col. 5: Element number.
#     Col. 6: Type.
#     Col. 7: Group.
#     Col. 8: html1.
#     Col. 9: startValue.
#     Col. 10: endValue.
#     Col. 11: value.
1566388751,105cc01dded11b3751921349e8c8447f,MultiSlider,60,0,EveryNot.None.HowManyBias,18,How likely are the following situations?
1566388751,105cc01dded11b3751921349e8c8447f,MultiSlider,60,0,EveryNot.None.HowManyBias,18,<b> All </b> of the sheep will be sold,0.00,100.00,67.50
# Columns below this comment are as follows:
# 1. Time results were received.
# 2. MD5 hash of participant's IP address.
# 3. Controller name.
# 4. Item number.
# 5. Element number.
# 6. Type.
# 7. Group.
# 8. html2.
# 9. startValue.
# 10. endValue.
# 11. value.
1566388751,105cc01dded11b3751921349e8c8447f,MultiSlider,60,0,EveryNot.None.HowManyBias,18,<b> None </b> of the sheep will be sold,0.00,100.00,21.50
1566388751,105cc01dded11b3751921349e8c8447f,MultiSlider,60,0,EveryNot.None.HowManyBias,18,<b> None </b> of the sheep will be sold,0.00,100.00,0.83
# The lines below this comment are in groups of 2.
# The formats of the lines in each of these groups are as follows:
#
# Line 1:
#     Col. 1: Time results were received.
#     Col. 2: MD5 hash of participant's IP address.
#     Col. 3: Controller name.
#     Col. 4: Item number.
#     Col. 5: Element number.
#     Col. 6: Type.
#     Col. 7: Group.
#     Col. 8: html.
#     Col. 9: startValue.
#     Col. 10: endValue.
#     Col. 11: value.
# Line 2:
#     Col. 1: Time results were received.
#     Col. 2: MD5 hash of participant's IP address.
#     Col. 3: Controller name.
#     Col. 4: Item number.
#     Col. 5: Element number.
#     Col. 6: Type.
#     Col. 7: Group.
#     Col. 8: Sentence (or sentence MD5).
1566388751,105cc01dded11b3751921349e8c8447f,MultiSlider,60,0,EveryNot.None.HowManyBias,18,<b> Some but not all </b> of the sheep will be sold,0.00,100.00,96.50
1566388751,105cc01dded11b3751921349e8c8447f,MultiSlider,10,0,EveryNot.All.AllBias,1,The whole kindergarten was going on a field trip. The teacher jumped on the bus to see if all the children had been seated.
# The lines below this comment are in groups of 2.
# The formats of the lines in each of these groups are as follows:
#
# Line 1:
#     Col. 1: Time results were received.
#     Col. 2: MD5 hash of participant's IP address.
#     Col. 3: Controller name.
#     Col. 4: Item number.
#     Col. 5: Element number.
#     Col. 6: Type.
#     Col. 7: Group.
#     Col. 8: Sentence (or sentence MD5).
# Line 2:
#     Col. 1: Time results were received.
#     Col. 2: MD5 hash of participant's IP address.
#     Col. 3: Controller name.
#     Col. 4: Item number.
#     Col. 5: Element number.
#     Col. 6: Type.
#     Col. 7: Group.
#     Col. 8: html1.
#     Col. 9: startValue.
#     Col. 10: endValue.
#     Col. 11: value.
1566388751,105cc01dded11b3751921349e8c8447f,MultiSlider,10,0,EveryNot.All.AllBias,1,How likely are the following situations?
1566388751,105cc01dded11b3751921349e8c8447f,MultiSlider,10,0,EveryNot.All.AllBias,1,<b> Some but not all </b> of the kindergartners got on the bus,0.00,100.00,97.50
# The lines below this comment are in groups of 2.
# The formats of the lines in each of these groups are as follows:
#
# Line 1:
#     Col. 1: Time results were received.
#     Col. 2: MD5 hash of participant's IP address.
#     Col. 3: Controller name.
#     Col. 4: Item number.
#     Col. 5: Element number.
#     Col. 6: Type.
#     Col. 7: Group.
#     Col. 8: html2.
#     Col. 9: startValue.
#     Col. 10: endValue.
#     Col. 11: value.
# Line 2:
#     Col. 1: Time results were received.
#     Col. 2: MD5 hash of participant's IP address.
#     Col. 3: Controller name.
#     Col. 4: Item number.
#     Col. 5: Element number.
#     Col. 6: Type.
#     Col. 7: Group.
#     Col. 8: html.
#     Col. 9: startValue.
#     Col. 10: endValue.
#     Col. 11: value.
1566388751,105cc01dded11b3751921349e8c8447f,MultiSlider,10,0,EveryNot.All.AllBias,1,<b> All </b> of the kindergartners got on the bus,0.00,100.00,97.17
1566388751,105cc01dded11b3751921349e8c8447f,MultiSlider,10,0,EveryNot.All.AllBias,1,<b> None </b> of the kindergartners got on the bus,0.00,100.00,3.83
# Columns below this comment are as follows:
# 1. Time results were received.
# 2. MD5 hash of participant's IP address.
# 3. Controller name.
# 4. Item number.
# 5. Element number.
# 6. Type.
# 7. Group.
# 8. Sentence (or sentence MD5).
1566388751,105cc01dded11b3751921349e8c8447f,MultiSlider,15,0,EveryNot.All.HowManyBias,3,Rachel is an industrious teaching assistant who has to grade student essays. After a week%2C her boss asks how much progress she's made so far.
1566388751,105cc01dded11b3751921349e8c8447f,MultiSlider,15,0,EveryNot.All.HowManyBias,3,How likely are the following situations?
# The lines below this comment are in groups of 2.
# The formats of the lines in each of these groups are as follows:
#
# Line 1:
#     Col. 1: Time results were received.
#     Col. 2: MD5 hash of participant's IP address.
#     Col. 3: Controller name.
#     Col. 4: Item number.
#     Col. 5: Element number.
#     Col. 6: Type.
#     Col. 7: Group.
#     Col. 8: html1.
#     Col. 9: startValue.
#     Col. 10: endValue.
#     Col. 11: value.
# Line 2:
#     Col. 1: Time results were received.
#     Col. 2: MD5 hash of participant's IP address.
#     Col. 3: Controller name.
#     Col. 4: Item number.
#     Col. 5: Element number.
#     Col. 6: Type.
#     Col. 7: Group.
#     Col. 8: html2.
#     Col. 9: startValue.
#     Col. 10: endValue.
#     Col. 11: value.
1566388751,105cc01dded11b3751921349e8c8447f,MultiSlider,15,0,EveryNot.All.HowManyBias,3,<b> All </b> of the student essays were graded,0.00,100.00,92.17
1566388751,105cc01dded11b3751921349e8c8447f,MultiSlider,15,0,EveryNot.All.HowManyBias,3,<b> None </b> of the student essays were graded,0.00,100.00,2.17
# The lines below this comment are in groups of 2.
# The formats of the lines in each of these groups are as follows:
#
# Line 1:
#     Col. 1: Time results were received.
#     Col. 2: MD5 hash of participant's IP address.
#     Col. 3: Controller name.
#     Col. 4: Item number.
#     Col. 5: Element number.
#     Col. 6: Type.
#     Col. 7: Group.
#     Col. 8: html.
#     Col. 9: startValue.
#     Col. 10: endValue.
#     Col. 11: value.
# Line 2:
#     Col. 1: Time results were received.
#     Col. 2: MD5 hash of participant's IP address.
#     Col. 3: Controller name.
#     Col. 4: Item number.
#     Col. 5: Element number.
#     Col. 6: Type.
#     Col. 7: Group.
#     Col. 8: Field name.
#     Col. 9: Field value.
1566388751,105cc01dded11b3751921349e8c8447f,MultiSlider,15,0,EveryNot.All.HowManyBias,3,<b> Some but not all </b> of the student essays were graded,0.00,100.00,96.50
1566388751,105cc01dded11b3751921349e8c8447f,Form,8,0,end_experiment,NULL,_REACTION_TIME_,43578
#
# Results on Wednesday August 21 2019 12:13:24 UTC.
# USER AGENT: Mozilla/5.0 (Macintosh; Intel Mac OS X 10_11_6) AppleWebKit/537.36 (KHTML, like Gecko) Chrome/76.0.3809.100 Safari/537.36
# Design number was non-random = 2
#
# Columns below this comment are as follows:
# 1. Time results were received.
# 2. MD5 hash of participant's IP address.
# 3. Controller name.
# 4. Item number.
# 5. Element number.
# 6. Type.
# 7. Group.
# 8. Field name.
# 9. Field value.
1566389604,83017c051d98a5528a2f95fc65c85f83,Form,7,0,consent,NULL,consent,yes
1566389604,83017c051d98a5528a2f95fc65c85f83,Form,7,0,consent,NULL,_REACTION_TIME_,3764
1566389604,83017c051d98a5528a2f95fc65c85f83,Form,1,0,intro,NULL,age,38
1566389604,83017c051d98a5528a2f95fc65c85f83,Form,1,0,intro,NULL,natlang,English
1566389604,83017c051d98a5528a2f95fc65c85f83,Form,1,0,intro,NULL,otherlang,A little Spanish.
1566389604,83017c051d98a5528a2f95fc65c85f83,Form,1,0,intro,NULL,Prolific,5c8a75033d8cfb00188b513e
1566389604,83017c051d98a5528a2f95fc65c85f83,Form,1,0,intro,NULL,gender,female
1566389604,83017c051d98a5528a2f95fc65c85f83,Form,1,0,intro,NULL,_REACTION_TIME_,18133
1566389604,83017c051d98a5528a2f95fc65c85f83,Form,2,0,intro1,NULL,_REACTION_TIME_,7471
1566389604,83017c051d98a5528a2f95fc65c85f83,Form,3,0,intro2,NULL,_REACTION_TIME_,16407
1566389604,83017c051d98a5528a2f95fc65c85f83,Form,4,0,intro3,NULL,_REACTION_TIME_,8315
# Columns below this comment are as follows:
# 1. Time results were received.
# 2. MD5 hash of participant's IP address.
# 3. Controller name.
# 4. Item number.
# 5. Element number.
# 6. Type.
# 7. Group.
# 8. Sentence (or sentence MD5).
1566389604,83017c051d98a5528a2f95fc65c85f83,MultiSlider,30,0,EveryNot.All.HowManyBias,8,A glamorous cocktail event was being held in the Hilton hotel. When guests arrived%2C the receptionist noted down the number of people who correctly followed the dress code.
1566389604,83017c051d98a5528a2f95fc65c85f83,MultiSlider,30,0,EveryNot.All.HowManyBias,8,How likely are the following situations?
# Columns below this comment are as follows:
# 1. Time results were received.
# 2. MD5 hash of participant's IP address.
# 3. Controller name.
# 4. Item number.
# 5. Element number.
# 6. Type.
# 7. Group.
# 8. html1.
# 9. startValue.
# 10. endValue.
# 11. value.
1566389604,83017c051d98a5528a2f95fc65c85f83,MultiSlider,30,0,EveryNot.All.HowManyBias,8,<b> None </b> of the guests were dressed properly,0.00,100.00,4.17
1566389604,83017c051d98a5528a2f95fc65c85f83,MultiSlider,30,0,EveryNot.All.HowManyBias,8,<b> None </b> of the guests were dressed properly,0.00,100.00,15.83
1566389604,83017c051d98a5528a2f95fc65c85f83,MultiSlider,30,0,EveryNot.All.HowManyBias,8,<b> None </b> of the guests were dressed properly,0.00,100.00,22.50
1566389604,83017c051d98a5528a2f95fc65c85f83,MultiSlider,30,0,EveryNot.All.HowManyBias,8,<b> None </b> of the guests were dressed properly,0.00,100.00,15.83
# The lines below this comment are in groups of 2.
# The formats of the lines in each of these groups are as follows:
#
# Line 1:
#     Col. 1: Time results were received.
#     Col. 2: MD5 hash of participant's IP address.
#     Col. 3: Controller name.
#     Col. 4: Item number.
#     Col. 5: Element number.
#     Col. 6: Type.
#     Col. 7: Group.
#     Col. 8: html2.
#     Col. 9: startValue.
#     Col. 10: endValue.
#     Col. 11: value.
# Line 2:
#     Col. 1: Time results were received.
#     Col. 2: MD5 hash of participant's IP address.
#     Col. 3: Controller name.
#     Col. 4: Item number.
#     Col. 5: Element number.
#     Col. 6: Type.
#     Col. 7: Group.
#     Col. 8: html.
#     Col. 9: startValue.
#     Col. 10: endValue.
#     Col. 11: value.
1566389604,83017c051d98a5528a2f95fc65c85f83,MultiSlider,30,0,EveryNot.All.HowManyBias,8,<b> Some but not all </b> of the guests were dressed properly,0.00,100.00,97.83
1566389604,83017c051d98a5528a2f95fc65c85f83,MultiSlider,30,0,EveryNot.All.HowManyBias,8,<b> All </b> of the guests were dressed properly,0.00,100.00,20.50
# Columns below this comment are as follows:
# 1. Time results were received.
# 2. MD5 hash of participant's IP address.
# 3. Controller name.
# 4. Item number.
# 5. Element number.
# 6. Type.
# 7. Group.
# 8. Sentence (or sentence MD5).
1566389604,83017c051d98a5528a2f95fc65c85f83,MultiSlider,48,0,EveryNot.Some.HowManyBias,14,Roy recently started a career as a professional gamer. A journalist interviewed him%2C and asked how many of the five Major League Gaming tournaments he had been invited to.
1566389604,83017c051d98a5528a2f95fc65c85f83,MultiSlider,48,0,EveryNot.Some.HowManyBias,14,How likely are the following situations?
# The lines below this comment are in groups of 2.
# The formats of the lines in each of these groups are as follows:
#
# Line 1:
#     Col. 1: Time results were received.
#     Col. 2: MD5 hash of participant's IP address.
#     Col. 3: Controller name.
#     Col. 4: Item number.
#     Col. 5: Element number.
#     Col. 6: Type.
#     Col. 7: Group.
#     Col. 8: html1.
#     Col. 9: startValue.
#     Col. 10: endValue.
#     Col. 11: value.
# Line 2:
#     Col. 1: Time results were received.
#     Col. 2: MD5 hash of participant's IP address.
#     Col. 3: Controller name.
#     Col. 4: Item number.
#     Col. 5: Element number.
#     Col. 6: Type.
#     Col. 7: Group.
#     Col. 8: html2.
#     Col. 9: startValue.
#     Col. 10: endValue.
#     Col. 11: value.
1566389604,83017c051d98a5528a2f95fc65c85f83,MultiSlider,48,0,EveryNot.Some.HowManyBias,14, Roy hasn't been invited to<b> any of </b>the Major League Gaming tournaments,0.00,100.00,98.83
1566389604,83017c051d98a5528a2f95fc65c85f83,MultiSlider,48,0,EveryNot.Some.HowManyBias,14, Roy has been invited to<b> some but not all of </b>the Major League Gaming tournaments,0.00,100.00,81.83
# The lines below this comment are in groups of 2.
# The formats of the lines in each of these groups are as follows:
#
# Line 1:
#     Col. 1: Time results were received.
#     Col. 2: MD5 hash of participant's IP address.
#     Col. 3: Controller name.
#     Col. 4: Item number.
#     Col. 5: Element number.
#     Col. 6: Type.
#     Col. 7: Group.
#     Col. 8: html2.
#     Col. 9: startValue.
#     Col. 10: endValue.
#     Col. 11: value.
# Line 2:
#     Col. 1: Time results were received.
#     Col. 2: MD5 hash of participant's IP address.
#     Col. 3: Controller name.
#     Col. 4: Item number.
#     Col. 5: Element number.
#     Col. 6: Type.
#     Col. 7: Group.
#     Col. 8: html.
#     Col. 9: startValue.
#     Col. 10: endValue.
#     Col. 11: value.
1566389604,83017c051d98a5528a2f95fc65c85f83,MultiSlider,48,0,EveryNot.Some.HowManyBias,14, Roy has been invited to<b> some but not all of </b>the Major League Gaming tournaments,0.00,100.00,69.83
1566389604,83017c051d98a5528a2f95fc65c85f83,MultiSlider,48,0,EveryNot.Some.HowManyBias,14, Roy has been invited to<b> all of </b>the Major League Gaming tournaments,0.00,100.00,3.17
# Columns below this comment are as follows:
# 1. Time results were received.
# 2. MD5 hash of participant's IP address.
# 3. Controller name.
# 4. Item number.
# 5. Element number.
# 6. Type.
# 7. Group.
# 8. Sentence (or sentence MD5).
1566389604,83017c051d98a5528a2f95fc65c85f83,MultiSlider,25,0,EveryNot.All.AllBias,6,Eric is a professional producer working on a new album. One day%2C he called the composer  to remind him that all the new songs need to have been demoed already.
1566389604,83017c051d98a5528a2f95fc65c85f83,MultiSlider,25,0,EveryNot.All.AllBias,6,How likely are the following situations?
# The lines below this comment are in groups of 2.
# The formats of the lines in each of these groups are as follows:
#
# Line 1:
#     Col. 1: Time results were received.
#     Col. 2: MD5 hash of participant's IP address.
#     Col. 3: Controller name.
#     Col. 4: Item number.
#     Col. 5: Element number.
#     Col. 6: Type.
#     Col. 7: Group.
#     Col. 8: html2.
#     Col. 9: startValue.
#     Col. 10: endValue.
#     Col. 11: value.
# Line 2:
#     Col. 1: Time results were received.
#     Col. 2: MD5 hash of participant's IP address.
#     Col. 3: Controller name.
#     Col. 4: Item number.
#     Col. 5: Element number.
#     Col. 6: Type.
#     Col. 7: Group.
#     Col. 8: html.
#     Col. 9: startValue.
#     Col. 10: endValue.
#     Col. 11: value.
1566389604,83017c051d98a5528a2f95fc65c85f83,MultiSlider,25,0,EveryNot.All.AllBias,6,<b> None </b> of the new songs have been demoed,0.00,100.00,16.83
1566389604,83017c051d98a5528a2f95fc65c85f83,MultiSlider,25,0,EveryNot.All.AllBias,6,<b> Some but not all </b> of the new songs have been demoed,0.00,100.00,81.83
# Columns below this comment are as follows:
# 1. Time results were received.
# 2. MD5 hash of participant's IP address.
# 3. Controller name.
# 4. Item number.
# 5. Element number.
# 6. Type.
# 7. Group.
# 8. Sentence (or sentence MD5).
1566389604,83017c051d98a5528a2f95fc65c85f83,MultiSlider,34,0,EveryNot.Some.AllBias,9,The teacher has just finished correcting exams. The dean wants an update because the school will receive an increase in federal funds if all of the students passed.
1566389604,83017c051d98a5528a2f95fc65c85f83,MultiSlider,34,0,EveryNot.Some.AllBias,9,How likely are the following situations?
# The lines below this comment are in groups of 2.
# The formats of the lines in each of these groups are as follows:
#
# Line 1:
#     Col. 1: Time results were received.
#     Col. 2: MD5 hash of participant's IP address.
#     Col. 3: Controller name.
#     Col. 4: Item number.
#     Col. 5: Element number.
#     Col. 6: Type.
#     Col. 7: Group.
#     Col. 8: html1.
#     Col. 9: startValue.
#     Col. 10: endValue.
#     Col. 11: value.
# Line 2:
#     Col. 1: Time results were received.
#     Col. 2: MD5 hash of participant's IP address.
#     Col. 3: Controller name.
#     Col. 4: Item number.
#     Col. 5: Element number.
#     Col. 6: Type.
#     Col. 7: Group.
#     Col. 8: html2.
#     Col. 9: startValue.
#     Col. 10: endValue.
#     Col. 11: value.
1566389604,83017c051d98a5528a2f95fc65c85f83,MultiSlider,34,0,EveryNot.Some.AllBias,9,<b> All </b> of the students passed the exam,0.00,100.00,15.17
1566389604,83017c051d98a5528a2f95fc65c85f83,MultiSlider,34,0,EveryNot.Some.AllBias,9,<b> None </b> of the students passed the exam,0.00,100.00,15.17
# The lines below this comment are in groups of 2.
# The formats of the lines in each of these groups are as follows:
#
# Line 1:
#     Col. 1: Time results were received.
#     Col. 2: MD5 hash of participant's IP address.
#     Col. 3: Controller name.
#     Col. 4: Item number.
#     Col. 5: Element number.
#     Col. 6: Type.
#     Col. 7: Group.
#     Col. 8: html.
#     Col. 9: startValue.
#     Col. 10: endValue.
#     Col. 11: value.
# Line 2:
#     Col. 1: Time results were received.
#     Col. 2: MD5 hash of participant's IP address.
#     Col. 3: Controller name.
#     Col. 4: Item number.
#     Col. 5: Element number.
#     Col. 6: Type.
#     Col. 7: Group.
#     Col. 8: Sentence (or sentence MD5).
1566389604,83017c051d98a5528a2f95fc65c85f83,MultiSlider,34,0,EveryNot.Some.AllBias,9,<b> Some but not all </b> of the students passed the exam,0.00,100.00,87.83
1566389604,83017c051d98a5528a2f95fc65c85f83,MultiSlider,61,0,EveryNot.None.AllBias,18,Paul lives on a sheep farm his parents bought for him%2C but plays video games all day. His parents called him and warned him that he must sell the entire herd to be able to continue living at the farm.
# The lines below this comment are in groups of 2.
# The formats of the lines in each of these groups are as follows:
#
# Line 1:
#     Col. 1: Time results were received.
#     Col. 2: MD5 hash of participant's IP address.
#     Col. 3: Controller name.
#     Col. 4: Item number.
#     Col. 5: Element number.
#     Col. 6: Type.
#     Col. 7: Group.
#     Col. 8: Sentence (or sentence MD5).
# Line 2:
#     Col. 1: Time results were received.
#     Col. 2: MD5 hash of participant's IP address.
#     Col. 3: Controller name.
#     Col. 4: Item number.
#     Col. 5: Element number.
#     Col. 6: Type.
#     Col. 7: Group.
#     Col. 8: html1.
#     Col. 9: startValue.
#     Col. 10: endValue.
#     Col. 11: value.
1566389604,83017c051d98a5528a2f95fc65c85f83,MultiSlider,61,0,EveryNot.None.AllBias,18,How likely are the following situations?
1566389604,83017c051d98a5528a2f95fc65c85f83,MultiSlider,61,0,EveryNot.None.AllBias,18,<b> All </b> of the sheep will be sold,0.00,100.00,12.17
# The lines below this comment are in groups of 2.
# The formats of the lines in each of these groups are as follows:
#
# Line 1:
#     Col. 1: Time results were received.
#     Col. 2: MD5 hash of participant's IP address.
#     Col. 3: Controller name.
#     Col. 4: Item number.
#     Col. 5: Element number.
#     Col. 6: Type.
#     Col. 7: Group.
#     Col. 8: html2.
#     Col. 9: startValue.
#     Col. 10: endValue.
#     Col. 11: value.
# Line 2:
#     Col. 1: Time results were received.
#     Col. 2: MD5 hash of participant's IP address.
#     Col. 3: Controller name.
#     Col. 4: Item number.
#     Col. 5: Element number.
#     Col. 6: Type.
#     Col. 7: Group.
#     Col. 8: html.
#     Col. 9: startValue.
#     Col. 10: endValue.
#     Col. 11: value.
1566389604,83017c051d98a5528a2f95fc65c85f83,MultiSlider,61,0,EveryNot.None.AllBias,18,<b> None </b> of the sheep will be sold,0.00,100.00,70.83
1566389604,83017c051d98a5528a2f95fc65c85f83,MultiSlider,61,0,EveryNot.None.AllBias,18,<b> Some but not all </b> of the sheep will be sold,0.00,100.00,50.00
# Columns below this comment are as follows:
# 1. Time results were received.
# 2. MD5 hash of participant's IP address.
# 3. Controller name.
# 4. Item number.
# 5. Element number.
# 6. Type.
# 7. Group.
# 8. Sentence (or sentence MD5).
1566389604,83017c051d98a5528a2f95fc65c85f83,MultiSlider,75,0,EveryNot.None.HowManyBias,23,The hospital has the best doctors in the country. One day%2C five patients had to be operated on for fractures in arms and legs. Afterwards%2C a news reporter asked how many of the patients had been successfully treated.
1566389604,83017c051d98a5528a2f95fc65c85f83,MultiSlider,75,0,EveryNot.None.HowManyBias,23,How likely are the following situations?
# The lines below this comment are in groups of 2.
# The formats of the lines in each of these groups are as follows:
#
# Line 1:
#     Col. 1: Time results were received.
#     Col. 2: MD5 hash of participant's IP address.
#     Col. 3: Controller name.
#     Col. 4: Item number.
#     Col. 5: Element number.
#     Col. 6: Type.
#     Col. 7: Group.
#     Col. 8: html1.
#     Col. 9: startValue.
#     Col. 10: endValue.
#     Col. 11: value.
# Line 2:
#     Col. 1: Time results were received.
#     Col. 2: MD5 hash of participant's IP address.
#     Col. 3: Controller name.
#     Col. 4: Item number.
#     Col. 5: Element number.
#     Col. 6: Type.
#     Col. 7: Group.
#     Col. 8: html2.
#     Col. 9: startValue.
#     Col. 10: endValue.
#     Col. 11: value.
1566389604,83017c051d98a5528a2f95fc65c85f83,MultiSlider,75,0,EveryNot.None.HowManyBias,23,<b> None </b> of the operations were successful,0.00,100.00,7.17
1566389604,83017c051d98a5528a2f95fc65c85f83,MultiSlider,75,0,EveryNot.None.HowManyBias,23,<b> Some but not all </b> of the operations were successful,0.00,100.00,84.83
# The lines below this comment are in groups of 2.
# The formats of the lines in each of these groups are as follows:
#
# Line 1:
#     Col. 1: Time results were received.
#     Col. 2: MD5 hash of participant's IP address.
#     Col. 3: Controller name.
#     Col. 4: Item number.
#     Col. 5: Element number.
#     Col. 6: Type.
#     Col. 7: Group.
#     Col. 8: html.
#     Col. 9: startValue.
#     Col. 10: endValue.
#     Col. 11: value.
# Line 2:
#     Col. 1: Time results were received.
#     Col. 2: MD5 hash of participant's IP address.
#     Col. 3: Controller name.
#     Col. 4: Item number.
#     Col. 5: Element number.
#     Col. 6: Type.
#     Col. 7: Group.
#     Col. 8: Sentence (or sentence MD5).
1566389604,83017c051d98a5528a2f95fc65c85f83,MultiSlider,75,0,EveryNot.None.HowManyBias,23,<b> All </b> of the operations were successful,0.00,100.00,85.50
1566389604,83017c051d98a5528a2f95fc65c85f83,MultiSlider,43,0,EveryNot.Some.AllBias,12,Sue and Marc went to a two-day science exhibition. On the first day%2C the organizers approached them and asked if they had seen everything yet.
# The lines below this comment are in groups of 2.
# The formats of the lines in each of these groups are as follows:
#
# Line 1:
#     Col. 1: Time results were received.
#     Col. 2: MD5 hash of participant's IP address.
#     Col. 3: Controller name.
#     Col. 4: Item number.
#     Col. 5: Element number.
#     Col. 6: Type.
#     Col. 7: Group.
#     Col. 8: Sentence (or sentence MD5).
# Line 2:
#     Col. 1: Time results were received.
#     Col. 2: MD5 hash of participant's IP address.
#     Col. 3: Controller name.
#     Col. 4: Item number.
#     Col. 5: Element number.
#     Col. 6: Type.
#     Col. 7: Group.
#     Col. 8: html1.
#     Col. 9: startValue.
#     Col. 10: endValue.
#     Col. 11: value.
1566389604,83017c051d98a5528a2f95fc65c85f83,MultiSlider,43,0,EveryNot.Some.AllBias,12,How likely are the following situations?
1566389604,83017c051d98a5528a2f95fc65c85f83,MultiSlider,43,0,EveryNot.Some.AllBias,12,Sue and Marc have visited<b> all of </b>the booths so far,0.00,100.00,24.83
# Columns below this comment are as follows:
# 1. Time results were received.
# 2. MD5 hash of participant's IP address.
# 3. Controller name.
# 4. Item number.
# 5. Element number.
# 6. Type.
# 7. Group.
# 8. html2.
# 9. startValue.
# 10. endValue.
# 11. value.
1566389604,83017c051d98a5528a2f95fc65c85f83,MultiSlider,43,0,EveryNot.Some.AllBias,12,Sue and Marc haven't visited<b> any of </b>the booths so far,0.00,100.00,34.50
1566389604,83017c051d98a5528a2f95fc65c85f83,MultiSlider,43,0,EveryNot.Some.AllBias,12,Sue and Marc haven't visited<b> any of </b>the booths so far,0.00,100.00,45.83
# The lines below this comment are in groups of 2.
# The formats of the lines in each of these groups are as follows:
#
# Line 1:
#     Col. 1: Time results were received.
#     Col. 2: MD5 hash of participant's IP address.
#     Col. 3: Controller name.
#     Col. 4: Item number.
#     Col. 5: Element number.
#     Col. 6: Type.
#     Col. 7: Group.
#     Col. 8: html.
#     Col. 9: startValue.
#     Col. 10: endValue.
#     Col. 11: value.
# Line 2:
#     Col. 1: Time results were received.
#     Col. 2: MD5 hash of participant's IP address.
#     Col. 3: Controller name.
#     Col. 4: Item number.
#     Col. 5: Element number.
#     Col. 6: Type.
#     Col. 7: Group.
#     Col. 8: Sentence (or sentence MD5).
1566389604,83017c051d98a5528a2f95fc65c85f83,MultiSlider,43,0,EveryNot.Some.AllBias,12,Sue and Marc have visited<b> some but not all of </b>the booths so far,0.00,100.00,92.50
1566389604,83017c051d98a5528a2f95fc65c85f83,MultiSlider,74,0,EveryNot.None.NoneBias,22,The unsuccessful broker has made some risky investments in the stock market. He nervously stared at the monitor%2C because his house may be foreclosed if none of the investments pay off.
# The lines below this comment are in groups of 2.
# The formats of the lines in each of these groups are as follows:
#
# Line 1:
#     Col. 1: Time results were received.
#     Col. 2: MD5 hash of participant's IP address.
#     Col. 3: Controller name.
#     Col. 4: Item number.
#     Col. 5: Element number.
#     Col. 6: Type.
#     Col. 7: Group.
#     Col. 8: Sentence (or sentence MD5).
# Line 2:
#     Col. 1: Time results were received.
#     Col. 2: MD5 hash of participant's IP address.
#     Col. 3: Controller name.
#     Col. 4: Item number.
#     Col. 5: Element number.
#     Col. 6: Type.
#     Col. 7: Group.
#     Col. 8: html1.
#     Col. 9: startValue.
#     Col. 10: endValue.
#     Col. 11: value.
1566389604,83017c051d98a5528a2f95fc65c85f83,MultiSlider,74,0,EveryNot.None.NoneBias,22,How likely are the following situations?
1566389604,83017c051d98a5528a2f95fc65c85f83,MultiSlider,74,0,EveryNot.None.NoneBias,22,<b> Some but not all </b> of the investment paid off,0.00,100.00,92.50
# The lines below this comment are in groups of 2.
# The formats of the lines in each of these groups are as follows:
#
# Line 1:
#     Col. 1: Time results were received.
#     Col. 2: MD5 hash of participant's IP address.
#     Col. 3: Controller name.
#     Col. 4: Item number.
#     Col. 5: Element number.
#     Col. 6: Type.
#     Col. 7: Group.
#     Col. 8: html2.
#     Col. 9: startValue.
#     Col. 10: endValue.
#     Col. 11: value.
# Line 2:
#     Col. 1: Time results were received.
#     Col. 2: MD5 hash of participant's IP address.
#     Col. 3: Controller name.
#     Col. 4: Item number.
#     Col. 5: Element number.
#     Col. 6: Type.
#     Col. 7: Group.
#     Col. 8: html.
#     Col. 9: startValue.
#     Col. 10: endValue.
#     Col. 11: value.
1566389604,83017c051d98a5528a2f95fc65c85f83,MultiSlider,74,0,EveryNot.None.NoneBias,22,<b> All </b> of the investment paid off,0.00,100.00,4.83
1566389604,83017c051d98a5528a2f95fc65c85f83,MultiSlider,74,0,EveryNot.None.NoneBias,22,<b> None </b> of the investment paid off,0.00,100.00,74.17
# Columns below this comment are as follows:
# 1. Time results were received.
# 2. MD5 hash of participant's IP address.
# 3. Controller name.
# 4. Item number.
# 5. Element number.
# 6. Type.
# 7. Group.
# 8. Sentence (or sentence MD5).
1566389604,83017c051d98a5528a2f95fc65c85f83,MultiSlider,56,0,EveryNot.Some.NoneBias,16,A tech start-up is facing some financial issues. During an HR meeting%2C the board debated whether they had to downsize.
1566389604,83017c051d98a5528a2f95fc65c85f83,MultiSlider,56,0,EveryNot.Some.NoneBias,16,How likely are the following situations?
# The lines below this comment are in groups of 2.
# The formats of the lines in each of these groups are as follows:
#
# Line 1:
#     Col. 1: Time results were received.
#     Col. 2: MD5 hash of participant's IP address.
#     Col. 3: Controller name.
#     Col. 4: Item number.
#     Col. 5: Element number.
#     Col. 6: Type.
#     Col. 7: Group.
#     Col. 8: html1.
#     Col. 9: startValue.
#     Col. 10: endValue.
#     Col. 11: value.
# Line 2:
#     Col. 1: Time results were received.
#     Col. 2: MD5 hash of participant's IP address.
#     Col. 3: Controller name.
#     Col. 4: Item number.
#     Col. 5: Element number.
#     Col. 6: Type.
#     Col. 7: Group.
#     Col. 8: html2.
#     Col. 9: startValue.
#     Col. 10: endValue.
#     Col. 11: value.
1566389604,83017c051d98a5528a2f95fc65c85f83,MultiSlider,56,0,EveryNot.Some.NoneBias,16,<b> Some but not all </b> of the employees will be fired,0.00,100.00,92.50
1566389604,83017c051d98a5528a2f95fc65c85f83,MultiSlider,56,0,EveryNot.Some.NoneBias,16,<b> All </b> of the employees will be fired,0.00,100.00,6.83
# The lines below this comment are in groups of 2.
# The formats of the lines in each of these groups are as follows:
#
# Line 1:
#     Col. 1: Time results were received.
#     Col. 2: MD5 hash of participant's IP address.
#     Col. 3: Controller name.
#     Col. 4: Item number.
#     Col. 5: Element number.
#     Col. 6: Type.
#     Col. 7: Group.
#     Col. 8: html.
#     Col. 9: startValue.
#     Col. 10: endValue.
#     Col. 11: value.
# Line 2:
#     Col. 1: Time results were received.
#     Col. 2: MD5 hash of participant's IP address.
#     Col. 3: Controller name.
#     Col. 4: Item number.
#     Col. 5: Element number.
#     Col. 6: Type.
#     Col. 7: Group.
#     Col. 8: Sentence (or sentence MD5).
1566389604,83017c051d98a5528a2f95fc65c85f83,MultiSlider,56,0,EveryNot.Some.NoneBias,16,<b> None </b> of the employees will be fired,0.00,100.00,28.83
1566389604,83017c051d98a5528a2f95fc65c85f83,MultiSlider,66,0,EveryNot.None.HowManyBias,20,Helena is a mediocre athlete who made a resolution to win three Olympic medals this year. Her coach thought that she would be motivated by the prizes%2C which was proportional to her performance in the game.
# The lines below this comment are in groups of 2.
# The formats of the lines in each of these groups are as follows:
#
# Line 1:
#     Col. 1: Time results were received.
#     Col. 2: MD5 hash of participant's IP address.
#     Col. 3: Controller name.
#     Col. 4: Item number.
#     Col. 5: Element number.
#     Col. 6: Type.
#     Col. 7: Group.
#     Col. 8: Sentence (or sentence MD5).
# Line 2:
#     Col. 1: Time results were received.
#     Col. 2: MD5 hash of participant's IP address.
#     Col. 3: Controller name.
#     Col. 4: Item number.
#     Col. 5: Element number.
#     Col. 6: Type.
#     Col. 7: Group.
#     Col. 8: html1.
#     Col. 9: startValue.
#     Col. 10: endValue.
#     Col. 11: value.
1566389604,83017c051d98a5528a2f95fc65c85f83,MultiSlider,66,0,EveryNot.None.HowManyBias,20,How likely are the following situations?
1566389604,83017c051d98a5528a2f95fc65c85f83,MultiSlider,66,0,EveryNot.None.HowManyBias,20, She didn't win<b> any of </b>the medals,0.00,100.00,92.17
# The lines below this comment are in groups of 2.
# The formats of the lines in each of these groups are as follows:
#
# Line 1:
#     Col. 1: Time results were received.
#     Col. 2: MD5 hash of participant's IP address.
#     Col. 3: Controller name.
#     Col. 4: Item number.
#     Col. 5: Element number.
#     Col. 6: Type.
#     Col. 7: Group.
#     Col. 8: html2.
#     Col. 9: startValue.
#     Col. 10: endValue.
#     Col. 11: value.
# Line 2:
#     Col. 1: Time results were received.
#     Col. 2: MD5 hash of participant's IP address.
#     Col. 3: Controller name.
#     Col. 4: Item number.
#     Col. 5: Element number.
#     Col. 6: Type.
#     Col. 7: Group.
#     Col. 8: html.
#     Col. 9: startValue.
#     Col. 10: endValue.
#     Col. 11: value.
1566389604,83017c051d98a5528a2f95fc65c85f83,MultiSlider,66,0,EveryNot.None.HowManyBias,20, She won<b> some but not all of </b>the medals,0.00,100.00,94.50
1566389604,83017c051d98a5528a2f95fc65c85f83,MultiSlider,66,0,EveryNot.None.HowManyBias,20, She won<b> all of </b>the medals,0.00,100.00,8.17
# Columns below this comment are as follows:
# 1. Time results were received.
# 2. MD5 hash of participant's IP address.
# 3. Controller name.
# 4. Item number.
# 5. Element number.
# 6. Type.
# 7. Group.
# 8. Sentence (or sentence MD5).
1566389604,83017c051d98a5528a2f95fc65c85f83,MultiSlider,12,0,EveryNot.All.HowManyBias,2,Erin is a vet. During her last trip%2C she encountered six deer in critical condition%2C and she tried to keep as many alive as possible.
1566389604,83017c051d98a5528a2f95fc65c85f83,MultiSlider,12,0,EveryNot.All.HowManyBias,2,How likely are the following situations?
# The lines below this comment are in groups of 2.
# The formats of the lines in each of these groups are as follows:
#
# Line 1:
#     Col. 1: Time results were received.
#     Col. 2: MD5 hash of participant's IP address.
#     Col. 3: Controller name.
#     Col. 4: Item number.
#     Col. 5: Element number.
#     Col. 6: Type.
#     Col. 7: Group.
#     Col. 8: html1.
#     Col. 9: startValue.
#     Col. 10: endValue.
#     Col. 11: value.
# Line 2:
#     Col. 1: Time results were received.
#     Col. 2: MD5 hash of participant's IP address.
#     Col. 3: Controller name.
#     Col. 4: Item number.
#     Col. 5: Element number.
#     Col. 6: Type.
#     Col. 7: Group.
#     Col. 8: html2.
#     Col. 9: startValue.
#     Col. 10: endValue.
#     Col. 11: value.
1566389604,83017c051d98a5528a2f95fc65c85f83,MultiSlider,12,0,EveryNot.All.HowManyBias,2,<b> None </b> of the six deer survived,0.00,100.00,70.83
1566389604,83017c051d98a5528a2f95fc65c85f83,MultiSlider,12,0,EveryNot.All.HowManyBias,2,<b> Some but not all </b> of the six deer survived,0.00,100.00,86.83
# The lines below this comment are in groups of 2.
# The formats of the lines in each of these groups are as follows:
#
# Line 1:
#     Col. 1: Time results were received.
#     Col. 2: MD5 hash of participant's IP address.
#     Col. 3: Controller name.
#     Col. 4: Item number.
#     Col. 5: Element number.
#     Col. 6: Type.
#     Col. 7: Group.
#     Col. 8: html.
#     Col. 9: startValue.
#     Col. 10: endValue.
#     Col. 11: value.
# Line 2:
#     Col. 1: Time results were received.
#     Col. 2: MD5 hash of participant's IP address.
#     Col. 3: Controller name.
#     Col. 4: Item number.
#     Col. 5: Element number.
#     Col. 6: Type.
#     Col. 7: Group.
#     Col. 8: Sentence (or sentence MD5).
1566389604,83017c051d98a5528a2f95fc65c85f83,MultiSlider,12,0,EveryNot.All.HowManyBias,2,<b> All </b> of the six deer survived,0.00,100.00,16.17
1566389604,83017c051d98a5528a2f95fc65c85f83,MultiSlider,47,0,EveryNot.Some.NoneBias,13,Lily inherited her mom's huge book collection. When her boyfriend visited%2C he wondered if Lily had cataloged anything from this collection.
# The lines below this comment are in groups of 2.
# The formats of the lines in each of these groups are as follows:
#
# Line 1:
#     Col. 1: Time results were received.
#     Col. 2: MD5 hash of participant's IP address.
#     Col. 3: Controller name.
#     Col. 4: Item number.
#     Col. 5: Element number.
#     Col. 6: Type.
#     Col. 7: Group.
#     Col. 8: Sentence (or sentence MD5).
# Line 2:
#     Col. 1: Time results were received.
#     Col. 2: MD5 hash of participant's IP address.
#     Col. 3: Controller name.
#     Col. 4: Item number.
#     Col. 5: Element number.
#     Col. 6: Type.
#     Col. 7: Group.
#     Col. 8: html.
#     Col. 9: startValue.
#     Col. 10: endValue.
#     Col. 11: value.
1566389604,83017c051d98a5528a2f95fc65c85f83,MultiSlider,47,0,EveryNot.Some.NoneBias,13,How likely are the following situations?
1566389604,83017c051d98a5528a2f95fc65c85f83,MultiSlider,47,0,EveryNot.Some.NoneBias,13,<b> None </b> of the books have been cataloged,0.00,100.00,50.00
# Columns below this comment are as follows:
# 1. Time results were received.
# 2. MD5 hash of participant's IP address.
# 3. Controller name.
# 4. Item number.
# 5. Element number.
# 6. Type.
# 7. Group.
# 8. Sentence (or sentence MD5).
1566389604,83017c051d98a5528a2f95fc65c85f83,MultiSlider,29,0,EveryNot.All.NoneBias,7,The nursery normally changes infants' diapers before they go to nap. This afternoon%2C a health inspector wanted to see if any of the infants had been changed before nap time.
1566389604,83017c051d98a5528a2f95fc65c85f83,MultiSlider,29,0,EveryNot.All.NoneBias,7,How likely are the following situations?
# The lines below this comment are in groups of 2.
# The formats of the lines in each of these groups are as follows:
#
# Line 1:
#     Col. 1: Time results were received.
#     Col. 2: MD5 hash of participant's IP address.
#     Col. 3: Controller name.
#     Col. 4: Item number.
#     Col. 5: Element number.
#     Col. 6: Type.
#     Col. 7: Group.
#     Col. 8: html1.
#     Col. 9: startValue.
#     Col. 10: endValue.
#     Col. 11: value.
# Line 2:
#     Col. 1: Time results were received.
#     Col. 2: MD5 hash of participant's IP address.
#     Col. 3: Controller name.
#     Col. 4: Item number.
#     Col. 5: Element number.
#     Col. 6: Type.
#     Col. 7: Group.
#     Col. 8: html2.
#     Col. 9: startValue.
#     Col. 10: endValue.
#     Col. 11: value.
1566389604,83017c051d98a5528a2f95fc65c85f83,MultiSlider,29,0,EveryNot.All.NoneBias,7,<b> Some but not all </b> of the infants have been changed,0.00,100.00,94.83
1566389604,83017c051d98a5528a2f95fc65c85f83,MultiSlider,29,0,EveryNot.All.NoneBias,7,<b> All </b> of the infants have been changed,0.00,100.00,95.50
# The lines below this comment are in groups of 2.
# The formats of the lines in each of these groups are as follows:
#
# Line 1:
#     Col. 1: Time results were received.
#     Col. 2: MD5 hash of participant's IP address.
#     Col. 3: Controller name.
#     Col. 4: Item number.
#     Col. 5: Element number.
#     Col. 6: Type.
#     Col. 7: Group.
#     Col. 8: html.
#     Col. 9: startValue.
#     Col. 10: endValue.
#     Col. 11: value.
# Line 2:
#     Col. 1: Time results were received.
#     Col. 2: MD5 hash of participant's IP address.
#     Col. 3: Controller name.
#     Col. 4: Item number.
#     Col. 5: Element number.
#     Col. 6: Type.
#     Col. 7: Group.
#     Col. 8: Sentence (or sentence MD5).
1566389604,83017c051d98a5528a2f95fc65c85f83,MultiSlider,29,0,EveryNot.All.NoneBias,7,<b> None </b> of the infants have been changed,0.00,100.00,5.50
1566389604,83017c051d98a5528a2f95fc65c85f83,MultiSlider,11,0,EveryNot.All.NoneBias,1,The whole kindergarten was going on a field trip. The teacher jumped on the bus to see if any children had got on the bus.
# The lines below this comment are in groups of 2.
# The formats of the lines in each of these groups are as follows:
#
# Line 1:
#     Col. 1: Time results were received.
#     Col. 2: MD5 hash of participant's IP address.
#     Col. 3: Controller name.
#     Col. 4: Item number.
#     Col. 5: Element number.
#     Col. 6: Type.
#     Col. 7: Group.
#     Col. 8: Sentence (or sentence MD5).
# Line 2:
#     Col. 1: Time results were received.
#     Col. 2: MD5 hash of participant's IP address.
#     Col. 3: Controller name.
#     Col. 4: Item number.
#     Col. 5: Element number.
#     Col. 6: Type.
#     Col. 7: Group.
#     Col. 8: html.
#     Col. 9: startValue.
#     Col. 10: endValue.
#     Col. 11: value.
1566389604,83017c051d98a5528a2f95fc65c85f83,MultiSlider,11,0,EveryNot.All.NoneBias,1,How likely are the following situations?
1566389604,83017c051d98a5528a2f95fc65c85f83,MultiSlider,11,0,EveryNot.All.NoneBias,1,<b> None </b> of the kindergartners got on the bus,0.00,100.00,50.00
# Columns below this comment are as follows:
# 1. Time results were received.
# 2. MD5 hash of participant's IP address.
# 3. Controller name.
# 4. Item number.
# 5. Element number.
# 6. Type.
# 7. Group.
# 8. Sentence (or sentence MD5).
1566389604,83017c051d98a5528a2f95fc65c85f83,MultiSlider,38,0,EveryNot.Some.NoneBias,10,The city council organized a spelling bee competition. As the competition began%2C the parents wondered if their kids would be able to get anything correct.
1566389604,83017c051d98a5528a2f95fc65c85f83,MultiSlider,38,0,EveryNot.Some.NoneBias,10,How likely are the following situations?
# The lines below this comment are in groups of 2.
# The formats of the lines in each of these groups are as follows:
#
# Line 1:
#     Col. 1: Time results were received.
#     Col. 2: MD5 hash of participant's IP address.
#     Col. 3: Controller name.
#     Col. 4: Item number.
#     Col. 5: Element number.
#     Col. 6: Type.
#     Col. 7: Group.
#     Col. 8: html1.
#     Col. 9: startValue.
#     Col. 10: endValue.
#     Col. 11: value.
# Line 2:
#     Col. 1: Time results were received.
#     Col. 2: MD5 hash of participant's IP address.
#     Col. 3: Controller name.
#     Col. 4: Item number.
#     Col. 5: Element number.
#     Col. 6: Type.
#     Col. 7: Group.
#     Col. 8: html2.
#     Col. 9: startValue.
#     Col. 10: endValue.
#     Col. 11: value.
1566389604,83017c051d98a5528a2f95fc65c85f83,MultiSlider,38,0,EveryNot.Some.NoneBias,10,The kids answered <b> some but not all of </b>the questions correctly,0.00,100.00,94.17
1566389604,83017c051d98a5528a2f95fc65c85f83,MultiSlider,38,0,EveryNot.Some.NoneBias,10,The kids answered <b> all of </b>the questions correctly,0.00,100.00,4.83
# The lines below this comment are in groups of 2.
# The formats of the lines in each of these groups are as follows:
#
# Line 1:
#     Col. 1: Time results were received.
#     Col. 2: MD5 hash of participant's IP address.
#     Col. 3: Controller name.
#     Col. 4: Item number.
#     Col. 5: Element number.
#     Col. 6: Type.
#     Col. 7: Group.
#     Col. 8: html.
#     Col. 9: startValue.
#     Col. 10: endValue.
#     Col. 11: value.
# Line 2:
#     Col. 1: Time results were received.
#     Col. 2: MD5 hash of participant's IP address.
#     Col. 3: Controller name.
#     Col. 4: Item number.
#     Col. 5: Element number.
#     Col. 6: Type.
#     Col. 7: Group.
#     Col. 8: Sentence (or sentence MD5).
1566389604,83017c051d98a5528a2f95fc65c85f83,MultiSlider,38,0,EveryNot.Some.NoneBias,10,The kids didn't answer <b> any of </b>the questions correctly,0.00,100.00,6.50
1566389604,83017c051d98a5528a2f95fc65c85f83,MultiSlider,79,0,EveryNot.None.AllBias,24,Wayne is a diligent therapist who is always there for his patients. Today%2C he has a minor flu. His assistant asks if she has to clean out his entire schedule for the day.
# The lines below this comment are in groups of 2.
# The formats of the lines in each of these groups are as follows:
#
# Line 1:
#     Col. 1: Time results were received.
#     Col. 2: MD5 hash of participant's IP address.
#     Col. 3: Controller name.
#     Col. 4: Item number.
#     Col. 5: Element number.
#     Col. 6: Type.
#     Col. 7: Group.
#     Col. 8: Sentence (or sentence MD5).
# Line 2:
#     Col. 1: Time results were received.
#     Col. 2: MD5 hash of participant's IP address.
#     Col. 3: Controller name.
#     Col. 4: Item number.
#     Col. 5: Element number.
#     Col. 6: Type.
#     Col. 7: Group.
#     Col. 8: html1.
#     Col. 9: startValue.
#     Col. 10: endValue.
#     Col. 11: value.
1566389604,83017c051d98a5528a2f95fc65c85f83,MultiSlider,79,0,EveryNot.None.AllBias,24,How likely are the following situations?
1566389604,83017c051d98a5528a2f95fc65c85f83,MultiSlider,79,0,EveryNot.None.AllBias,24,<b> All </b> of the appointments will be cancelled,0.00,100.00,17.17
# Columns below this comment are as follows:
# 1. Time results were received.
# 2. MD5 hash of participant's IP address.
# 3. Controller name.
# 4. Item number.
# 5. Element number.
# 6. Type.
# 7. Group.
# 8. html2.
# 9. startValue.
# 10. endValue.
# 11. value.
1566389604,83017c051d98a5528a2f95fc65c85f83,MultiSlider,79,0,EveryNot.None.AllBias,24,<b> None </b> of the appointments will be cancelled,0.00,100.00,69.83
