#
# Results on Wednesday August 21 2019 10:55:41 UTC.
# USER AGENT: Mozilla/5.0 (Windows NT 10.0; Win64; x64) AppleWebKit/537.36 (KHTML, like Gecko) Chrome/76.0.3809.100 Safari/537.36
# Design number was non-random = 0
#
# Columns below this comment are as follows:
# 1. Time results were received.
# 2. MD5 hash of participant's IP address.
# 3. Controller name.
# 4. Item number.
# 5. Element number.
# 6. Type.
# 7. Group.
# 8. Field name.
# 9. Field value.
1566384942,1e5fe4d43cb0b75572c9dad7a16fcd63,Form,6,0,consent,NULL,consent,yes
1566384942,1e5fe4d43cb0b75572c9dad7a16fcd63,Form,6,0,consent,NULL,_REACTION_TIME_,1788
1566384942,1e5fe4d43cb0b75572c9dad7a16fcd63,Form,1,0,intro,NULL,age,1
1566384942,1e5fe4d43cb0b75572c9dad7a16fcd63,Form,1,0,intro,NULL,natlang,l
1566384942,1e5fe4d43cb0b75572c9dad7a16fcd63,Form,1,0,intro,NULL,otherlang,l
1566384942,1e5fe4d43cb0b75572c9dad7a16fcd63,Form,1,0,intro,NULL,Prolific,l
1566384942,1e5fe4d43cb0b75572c9dad7a16fcd63,Form,1,0,intro,NULL,gender,female
1566384942,1e5fe4d43cb0b75572c9dad7a16fcd63,Form,1,0,intro,NULL,_REACTION_TIME_,3736
1566384942,1e5fe4d43cb0b75572c9dad7a16fcd63,Form,2,0,intro1,NULL,_REACTION_TIME_,556
1566384942,1e5fe4d43cb0b75572c9dad7a16fcd63,Form,3,0,intro2,NULL,_REACTION_TIME_,587
1566384942,1e5fe4d43cb0b75572c9dad7a16fcd63,Form,4,0,intro3,NULL,_REACTION_TIME_,587
# Columns below this comment are as follows:
# 1. Time results were received.
# 2. MD5 hash of participant's IP address.
# 3. Controller name.
# 4. Item number.
# 5. Element number.
# 6. Type.
# 7. Group.
# 8. html.
# 9. startValue.
# 10. endValue.
# 11. value.
1566384942,1e5fe4d43cb0b75572c9dad7a16fcd63,MultiSlider,26,0,EveryNot.All.HowManyBias,7,<b> Some but not all </b> of the infants have been changed,0.00,100.00,50.00
1566384942,1e5fe4d43cb0b75572c9dad7a16fcd63,MultiSlider,53,0,EveryNot.Some.HowManyBias,16,<b> Some but not all </b> of the employees will be fired,0.00,100.00,50.00
1566384942,1e5fe4d43cb0b75572c9dad7a16fcd63,MultiSlider,8,0,EveryNot.All.HowManyBias,1,<b> Some but not all </b> of the kindergartners got on the bus,0.00,100.00,50.00
# Columns below this comment are as follows:
# 1. Time results were received.
# 2. MD5 hash of participant's IP address.
# 3. Controller name.
# 4. Item number.
# 5. Element number.
# 6. Type.
# 7. Group.
# 8. Sentence (or sentence MD5).
1566384942,1e5fe4d43cb0b75572c9dad7a16fcd63,MultiSlider,71,0,EveryNot.None.HowManyBias,22,The unsuccessful broker has made some risky investments in the stock market. He nervously stared at the monitor%2C because whether he can pay for the mortgage depends on the number of the investments that work out.
1566384942,1e5fe4d43cb0b75572c9dad7a16fcd63,MultiSlider,71,0,EveryNot.None.HowManyBias,22,How likely are the following situations?
# Columns below this comment are as follows:
# 1. Time results were received.
# 2. MD5 hash of participant's IP address.
# 3. Controller name.
# 4. Item number.
# 5. Element number.
# 6. Type.
# 7. Group.
# 8. html.
# 9. startValue.
# 10. endValue.
# 11. value.
1566384942,1e5fe4d43cb0b75572c9dad7a16fcd63,MultiSlider,71,0,EveryNot.None.HowManyBias,22,<b> Some but not all </b> of the investment paid off,0.00,100.00,0.00
1566384942,1e5fe4d43cb0b75572c9dad7a16fcd63,MultiSlider,66,0,EveryNot.None.AllBias,20, She didn't win<b> any of </b>the medals,0.00,100.00,50.00
1566384942,1e5fe4d43cb0b75572c9dad7a16fcd63,MultiSlider,79,0,EveryNot.None.NoneBias,24,<b> All </b> of the appointments will be cancelled,0.00,100.00,50.00
1566384942,1e5fe4d43cb0b75572c9dad7a16fcd63,MultiSlider,44,0,EveryNot.Some.HowManyBias,13,<b> Some but not all </b> of the books have been cataloged,0.00,100.00,50.00
1566384942,1e5fe4d43cb0b75572c9dad7a16fcd63,MultiSlider,21,0,EveryNot.All.AllBias,5,<b> None </b> of the boxes have been opened,0.00,100.00,50.00
1566384942,1e5fe4d43cb0b75572c9dad7a16fcd63,MultiSlider,61,0,EveryNot.None.NoneBias,18,<b> All </b> of the sheep will be sold,0.00,100.00,50.00
1566384942,1e5fe4d43cb0b75572c9dad7a16fcd63,MultiSlider,70,0,EveryNot.None.NoneBias,21, Julia failed<b> all of </b>the classes,0.00,100.00,50.00
# Columns below this comment are as follows:
# 1. Time results were received.
# 2. MD5 hash of participant's IP address.
# 3. Controller name.
# 4. Item number.
# 5. Element number.
# 6. Type.
# 7. Group.
# 8. Sentence (or sentence MD5).
1566384942,1e5fe4d43cb0b75572c9dad7a16fcd63,MultiSlider,62,0,EveryNot.None.HowManyBias,19,Bill is an average runner who tried to break five Guinness records of running. At the day of the challenge%2C he tried hard to break as many records as he could.
1566384942,1e5fe4d43cb0b75572c9dad7a16fcd63,MultiSlider,62,0,EveryNot.None.HowManyBias,19,How likely are the following situations?
# Columns below this comment are as follows:
# 1. Time results were received.
# 2. MD5 hash of participant's IP address.
# 3. Controller name.
# 4. Item number.
# 5. Element number.
# 6. Type.
# 7. Group.
# 8. html.
# 9. startValue.
# 10. endValue.
# 11. value.
1566384942,1e5fe4d43cb0b75572c9dad7a16fcd63,MultiSlider,62,0,EveryNot.None.HowManyBias,19,<b> Some but not all </b> of the records were broken in the end,0.00,100.00,50.00
1566384942,1e5fe4d43cb0b75572c9dad7a16fcd63,MultiSlider,30,0,EveryNot.All.AllBias,8,<b> None </b> of the guests were dressed properly,0.00,100.00,50.00
1566384942,1e5fe4d43cb0b75572c9dad7a16fcd63,MultiSlider,39,0,EveryNot.Some.AllBias,11,<b> None </b> of the sales were closed in the end,0.00,100.00,50.00
1566384942,1e5fe4d43cb0b75572c9dad7a16fcd63,MultiSlider,35,0,EveryNot.Some.HowManyBias,10,The kids answered <b> some but not all of </b>the questions correctly,0.00,100.00,50.00
# Columns below this comment are as follows:
# 1. Time results were received.
# 2. MD5 hash of participant's IP address.
# 3. Controller name.
# 4. Item number.
# 5. Element number.
# 6. Type.
# 7. Group.
# 8. Sentence (or sentence MD5).
1566384942,1e5fe4d43cb0b75572c9dad7a16fcd63,MultiSlider,34,0,EveryNot.Some.NoneBias,9,The teacher has just finished correcting exams. The dean wants an update because the school will be closed if all of the students failed.
1566384942,1e5fe4d43cb0b75572c9dad7a16fcd63,MultiSlider,34,0,EveryNot.Some.NoneBias,9,How likely are the following situations?
# Columns below this comment are as follows:
# 1. Time results were received.
# 2. MD5 hash of participant's IP address.
# 3. Controller name.
# 4. Item number.
# 5. Element number.
# 6. Type.
# 7. Group.
# 8. html.
# 9. startValue.
# 10. endValue.
# 11. value.
1566384942,1e5fe4d43cb0b75572c9dad7a16fcd63,MultiSlider,34,0,EveryNot.Some.NoneBias,9,<b> All </b> of the students passed the exam,0.00,100.00,50.00
1566384942,1e5fe4d43cb0b75572c9dad7a16fcd63,MultiSlider,12,0,EveryNot.All.AllBias,2,<b> None </b> of the six deer survived,0.00,100.00,50.00
1566384942,1e5fe4d43cb0b75572c9dad7a16fcd63,MultiSlider,75,0,EveryNot.None.AllBias,23,<b> None </b> of the operations were successful,0.00,100.00,50.00
1566384942,1e5fe4d43cb0b75572c9dad7a16fcd63,MultiSlider,43,0,EveryNot.Some.NoneBias,12,Sue and Marc have visited<b> all of </b>the booths so far,0.00,100.00,50.00
1566384942,1e5fe4d43cb0b75572c9dad7a16fcd63,MultiSlider,52,0,EveryNot.Some.NoneBias,15,<b> All </b> of Barney's submissions have been published,0.00,100.00,50.00
1566384942,1e5fe4d43cb0b75572c9dad7a16fcd63,MultiSlider,16,0,EveryNot.All.NoneBias,3,<b> All </b> of the student essays were graded,0.00,100.00,50.00
# Columns below this comment are as follows:
# 1. Time results were received.
# 2. MD5 hash of participant's IP address.
# 3. Controller name.
# 4. Item number.
# 5. Element number.
# 6. Type.
# 7. Group.
# 8. Sentence (or sentence MD5).
1566384942,1e5fe4d43cb0b75572c9dad7a16fcd63,MultiSlider,17,0,EveryNot.All.HowManyBias,4,The couple has been planning their wedding for next month. The bride wants to know if they are behind schedule to finish writing the invitations.
1566384942,1e5fe4d43cb0b75572c9dad7a16fcd63,MultiSlider,17,0,EveryNot.All.HowManyBias,4,How likely are the following situations?
# Columns below this comment are as follows:
# 1. Time results were received.
# 2. MD5 hash of participant's IP address.
# 3. Controller name.
# 4. Item number.
# 5. Element number.
# 6. Type.
# 7. Group.
# 8. html.
# 9. startValue.
# 10. endValue.
# 11. value.
1566384942,1e5fe4d43cb0b75572c9dad7a16fcd63,MultiSlider,17,0,EveryNot.All.HowManyBias,4,<b> Some but not all </b> of the wedding invitations have been written,0.00,100.00,50.00
1566384942,1e5fe4d43cb0b75572c9dad7a16fcd63,MultiSlider,25,0,EveryNot.All.NoneBias,6,<b> All </b> of the new songs have been demoed,0.00,100.00,50.00
1566384942,1e5fe4d43cb0b75572c9dad7a16fcd63,MultiSlider,48,0,EveryNot.Some.AllBias,14, Roy hasn't been invited to<b> any of </b>the Major League Gaming tournaments,0.00,100.00,50.00
# Columns below this comment are as follows:
# 1. Time results were received.
# 2. MD5 hash of participant's IP address.
# 3. Controller name.
# 4. Item number.
# 5. Element number.
# 6. Type.
# 7. Group.
# 8. Sentence (or sentence MD5).
1566384942,1e5fe4d43cb0b75572c9dad7a16fcd63,MultiSlider,57,0,EveryNot.None.AllBias,17,Jack is an incompetent homicide detective trying to solve three recent murders. His boss tells him that he will have to look for a new job if he doesn't solve these murders.
1566384942,1e5fe4d43cb0b75572c9dad7a16fcd63,MultiSlider,57,0,EveryNot.None.AllBias,17,How likely are the following situations?
# The lines below this comment are in groups of 2.
# The formats of the lines in each of these groups are as follows:
#
# Line 1:
#     Col. 1: Time results were received.
#     Col. 2: MD5 hash of participant's IP address.
#     Col. 3: Controller name.
#     Col. 4: Item number.
#     Col. 5: Element number.
#     Col. 6: Type.
#     Col. 7: Group.
#     Col. 8: html.
#     Col. 9: startValue.
#     Col. 10: endValue.
#     Col. 11: value.
# Line 2:
#     Col. 1: Time results were received.
#     Col. 2: MD5 hash of participant's IP address.
#     Col. 3: Controller name.
#     Col. 4: Item number.
#     Col. 5: Element number.
#     Col. 6: Type.
#     Col. 7: Group.
#     Col. 8: Field name.
#     Col. 9: Field value.
1566384942,1e5fe4d43cb0b75572c9dad7a16fcd63,MultiSlider,57,0,EveryNot.None.AllBias,17,<b> None </b> of the cases will be solved,0.00,100.00,50.00
1566384942,1e5fe4d43cb0b75572c9dad7a16fcd63,Form,7,0,end_experiment,NULL,_REACTION_TIME_,1878
#
# Results on Wednesday August 21 2019 15:46:46 UTC.
# USER AGENT: Mozilla/5.0 (Windows NT 10.0; Win64; x64; rv:68.0) Gecko/20100101 Firefox/68.0
# Design number was non-random = 2
#
# Columns below this comment are as follows:
# 1. Time results were received.
# 2. MD5 hash of participant's IP address.
# 3. Controller name.
# 4. Item number.
# 5. Element number.
# 6. Type.
# 7. Group.
# 8. Field name.
# 9. Field value.
1566402406,74e087c0b84bb8061a4e57ef635b75c7,Form,7,0,consent,NULL,consent,yes
1566402406,74e087c0b84bb8061a4e57ef635b75c7,Form,7,0,consent,NULL,_REACTION_TIME_,6675
1566402406,74e087c0b84bb8061a4e57ef635b75c7,Form,1,0,intro,NULL,age,24
1566402406,74e087c0b84bb8061a4e57ef635b75c7,Form,1,0,intro,NULL,natlang,English
1566402406,74e087c0b84bb8061a4e57ef635b75c7,Form,1,0,intro,NULL,otherlang,Intermediate level of Swedish & beginner level french
1566402406,74e087c0b84bb8061a4e57ef635b75c7,Form,1,0,intro,NULL,Prolific,5cfd2737a224000019675c9e
1566402406,74e087c0b84bb8061a4e57ef635b75c7,Form,1,0,intro,NULL,gender,female
1566402406,74e087c0b84bb8061a4e57ef635b75c7,Form,1,0,intro,NULL,_REACTION_TIME_,51272
1566402406,74e087c0b84bb8061a4e57ef635b75c7,Form,2,0,intro1,NULL,_REACTION_TIME_,2058
1566402406,74e087c0b84bb8061a4e57ef635b75c7,Form,3,0,intro2,NULL,_REACTION_TIME_,19909
1566402406,74e087c0b84bb8061a4e57ef635b75c7,Form,4,0,intro3,NULL,_REACTION_TIME_,11302
# Columns below this comment are as follows:
# 1. Time results were received.
# 2. MD5 hash of participant's IP address.
# 3. Controller name.
# 4. Item number.
# 5. Element number.
# 6. Type.
# 7. Group.
# 8. Sentence (or sentence MD5).
1566402406,74e087c0b84bb8061a4e57ef635b75c7,MultiSlider,52,0,EveryNot.Some.AllBias,15,Barney has been submitting recipes to a famous cooking website for some time now. His partner asked whether all of his submissions had been posted on the website.
1566402406,74e087c0b84bb8061a4e57ef635b75c7,MultiSlider,52,0,EveryNot.Some.AllBias,15,How likely are the following situations?
# Columns below this comment are as follows:
# 1. Time results were received.
# 2. MD5 hash of participant's IP address.
# 3. Controller name.
# 4. Item number.
# 5. Element number.
# 6. Type.
# 7. Group.
# 8. html1.
# 9. startValue.
# 10. endValue.
# 11. value.
1566402406,74e087c0b84bb8061a4e57ef635b75c7,MultiSlider,52,0,EveryNot.Some.AllBias,15,<b> None </b> of Barney's submissions have been published,0.00,100.00,61.50
1566402406,74e087c0b84bb8061a4e57ef635b75c7,MultiSlider,52,0,EveryNot.Some.AllBias,15,<b> None </b> of Barney's submissions have been published,0.00,100.00,77.83
# Columns below this comment are as follows:
# 1. Time results were received.
# 2. MD5 hash of participant's IP address.
# 3. Controller name.
# 4. Item number.
# 5. Element number.
# 6. Type.
# 7. Group.
# 8. html2.
# 9. startValue.
# 10. endValue.
# 11. value.
1566402406,74e087c0b84bb8061a4e57ef635b75c7,MultiSlider,52,0,EveryNot.Some.AllBias,15,<b> Some but not all </b> of Barney's submissions have been published,0.00,100.00,69.50
1566402406,74e087c0b84bb8061a4e57ef635b75c7,MultiSlider,52,0,EveryNot.Some.AllBias,15,<b> Some but not all </b> of Barney's submissions have been published,0.00,100.00,91.17
1566402406,74e087c0b84bb8061a4e57ef635b75c7,MultiSlider,52,0,EveryNot.Some.AllBias,15,<b> Some but not all </b> of Barney's submissions have been published,0.00,100.00,83.50
1566402406,74e087c0b84bb8061a4e57ef635b75c7,MultiSlider,52,0,EveryNot.Some.AllBias,15,<b> Some but not all </b> of Barney's submissions have been published,0.00,100.00,74.17
# The lines below this comment are in groups of 2.
# The formats of the lines in each of these groups are as follows:
#
# Line 1:
#     Col. 1: Time results were received.
#     Col. 2: MD5 hash of participant's IP address.
#     Col. 3: Controller name.
#     Col. 4: Item number.
#     Col. 5: Element number.
#     Col. 6: Type.
#     Col. 7: Group.
#     Col. 8: html.
#     Col. 9: startValue.
#     Col. 10: endValue.
#     Col. 11: value.
# Line 2:
#     Col. 1: Time results were received.
#     Col. 2: MD5 hash of participant's IP address.
#     Col. 3: Controller name.
#     Col. 4: Item number.
#     Col. 5: Element number.
#     Col. 6: Type.
#     Col. 7: Group.
#     Col. 8: Sentence (or sentence MD5).
1566402406,74e087c0b84bb8061a4e57ef635b75c7,MultiSlider,52,0,EveryNot.Some.AllBias,15,<b> All </b> of Barney's submissions have been published,0.00,100.00,13.50
1566402406,74e087c0b84bb8061a4e57ef635b75c7,MultiSlider,29,0,EveryNot.All.NoneBias,7,The nursery normally changes infants' diapers before they go to nap. This afternoon%2C a health inspector wanted to see if any of the infants had been changed before nap time.
# The lines below this comment are in groups of 2.
# The formats of the lines in each of these groups are as follows:
#
# Line 1:
#     Col. 1: Time results were received.
#     Col. 2: MD5 hash of participant's IP address.
#     Col. 3: Controller name.
#     Col. 4: Item number.
#     Col. 5: Element number.
#     Col. 6: Type.
#     Col. 7: Group.
#     Col. 8: Sentence (or sentence MD5).
# Line 2:
#     Col. 1: Time results were received.
#     Col. 2: MD5 hash of participant's IP address.
#     Col. 3: Controller name.
#     Col. 4: Item number.
#     Col. 5: Element number.
#     Col. 6: Type.
#     Col. 7: Group.
#     Col. 8: html1.
#     Col. 9: startValue.
#     Col. 10: endValue.
#     Col. 11: value.
1566402406,74e087c0b84bb8061a4e57ef635b75c7,MultiSlider,29,0,EveryNot.All.NoneBias,7,How likely are the following situations?
1566402406,74e087c0b84bb8061a4e57ef635b75c7,MultiSlider,29,0,EveryNot.All.NoneBias,7,<b> All </b> of the infants have been changed,0.00,100.00,85.50
# The lines below this comment are in groups of 2.
# The formats of the lines in each of these groups are as follows:
#
# Line 1:
#     Col. 1: Time results were received.
#     Col. 2: MD5 hash of participant's IP address.
#     Col. 3: Controller name.
#     Col. 4: Item number.
#     Col. 5: Element number.
#     Col. 6: Type.
#     Col. 7: Group.
#     Col. 8: html2.
#     Col. 9: startValue.
#     Col. 10: endValue.
#     Col. 11: value.
# Line 2:
#     Col. 1: Time results were received.
#     Col. 2: MD5 hash of participant's IP address.
#     Col. 3: Controller name.
#     Col. 4: Item number.
#     Col. 5: Element number.
#     Col. 6: Type.
#     Col. 7: Group.
#     Col. 8: html.
#     Col. 9: startValue.
#     Col. 10: endValue.
#     Col. 11: value.
1566402406,74e087c0b84bb8061a4e57ef635b75c7,MultiSlider,29,0,EveryNot.All.NoneBias,7,<b> None </b> of the infants have been changed,0.00,100.00,11.83
1566402406,74e087c0b84bb8061a4e57ef635b75c7,MultiSlider,29,0,EveryNot.All.NoneBias,7,<b> Some but not all </b> of the infants have been changed,0.00,100.00,72.50
# Columns below this comment are as follows:
# 1. Time results were received.
# 2. MD5 hash of participant's IP address.
# 3. Controller name.
# 4. Item number.
# 5. Element number.
# 6. Type.
# 7. Group.
# 8. Sentence (or sentence MD5).
1566402406,74e087c0b84bb8061a4e57ef635b75c7,MultiSlider,39,0,EveryNot.Some.HowManyBias,11,The local community organized a flea market last weekend. The sellers  all tried very hard to close as many sales as they could.
1566402406,74e087c0b84bb8061a4e57ef635b75c7,MultiSlider,39,0,EveryNot.Some.HowManyBias,11,How likely are the following situations?
# The lines below this comment are in groups of 2.
# The formats of the lines in each of these groups are as follows:
#
# Line 1:
#     Col. 1: Time results were received.
#     Col. 2: MD5 hash of participant's IP address.
#     Col. 3: Controller name.
#     Col. 4: Item number.
#     Col. 5: Element number.
#     Col. 6: Type.
#     Col. 7: Group.
#     Col. 8: html1.
#     Col. 9: startValue.
#     Col. 10: endValue.
#     Col. 11: value.
# Line 2:
#     Col. 1: Time results were received.
#     Col. 2: MD5 hash of participant's IP address.
#     Col. 3: Controller name.
#     Col. 4: Item number.
#     Col. 5: Element number.
#     Col. 6: Type.
#     Col. 7: Group.
#     Col. 8: html2.
#     Col. 9: startValue.
#     Col. 10: endValue.
#     Col. 11: value.
1566402406,74e087c0b84bb8061a4e57ef635b75c7,MultiSlider,39,0,EveryNot.Some.HowManyBias,11,<b> Some but not all </b> of the sales were closed in the end,0.00,100.00,97.83
1566402406,74e087c0b84bb8061a4e57ef635b75c7,MultiSlider,39,0,EveryNot.Some.HowManyBias,11,<b> All </b> of the sales were closed in the end,0.00,100.00,83.50
# The lines below this comment are in groups of 2.
# The formats of the lines in each of these groups are as follows:
#
# Line 1:
#     Col. 1: Time results were received.
#     Col. 2: MD5 hash of participant's IP address.
#     Col. 3: Controller name.
#     Col. 4: Item number.
#     Col. 5: Element number.
#     Col. 6: Type.
#     Col. 7: Group.
#     Col. 8: html2.
#     Col. 9: startValue.
#     Col. 10: endValue.
#     Col. 11: value.
# Line 2:
#     Col. 1: Time results were received.
#     Col. 2: MD5 hash of participant's IP address.
#     Col. 3: Controller name.
#     Col. 4: Item number.
#     Col. 5: Element number.
#     Col. 6: Type.
#     Col. 7: Group.
#     Col. 8: html.
#     Col. 9: startValue.
#     Col. 10: endValue.
#     Col. 11: value.
1566402406,74e087c0b84bb8061a4e57ef635b75c7,MultiSlider,39,0,EveryNot.Some.HowManyBias,11,<b> All </b> of the sales were closed in the end,0.00,100.00,66.17
1566402406,74e087c0b84bb8061a4e57ef635b75c7,MultiSlider,39,0,EveryNot.Some.HowManyBias,11,<b> None </b> of the sales were closed in the end,0.00,100.00,41.17
# Columns below this comment are as follows:
# 1. Time results were received.
# 2. MD5 hash of participant's IP address.
# 3. Controller name.
# 4. Item number.
# 5. Element number.
# 6. Type.
# 7. Group.
# 8. Sentence (or sentence MD5).
1566402406,74e087c0b84bb8061a4e57ef635b75c7,MultiSlider,47,0,EveryNot.Some.NoneBias,13,Lily inherited her mom's huge book collection. When her boyfriend visited%2C he wondered if Lily had cataloged anything from this collection.
1566402406,74e087c0b84bb8061a4e57ef635b75c7,MultiSlider,47,0,EveryNot.Some.NoneBias,13,How likely are the following situations?
# The lines below this comment are in groups of 2.
# The formats of the lines in each of these groups are as follows:
#
# Line 1:
#     Col. 1: Time results were received.
#     Col. 2: MD5 hash of participant's IP address.
#     Col. 3: Controller name.
#     Col. 4: Item number.
#     Col. 5: Element number.
#     Col. 6: Type.
#     Col. 7: Group.
#     Col. 8: html1.
#     Col. 9: startValue.
#     Col. 10: endValue.
#     Col. 11: value.
# Line 2:
#     Col. 1: Time results were received.
#     Col. 2: MD5 hash of participant's IP address.
#     Col. 3: Controller name.
#     Col. 4: Item number.
#     Col. 5: Element number.
#     Col. 6: Type.
#     Col. 7: Group.
#     Col. 8: html2.
#     Col. 9: startValue.
#     Col. 10: endValue.
#     Col. 11: value.
1566402406,74e087c0b84bb8061a4e57ef635b75c7,MultiSlider,47,0,EveryNot.Some.NoneBias,13,<b> All </b> of the books have been cataloged,0.00,100.00,11.83
1566402406,74e087c0b84bb8061a4e57ef635b75c7,MultiSlider,47,0,EveryNot.Some.NoneBias,13,<b> None </b> of the books have been cataloged,0.00,100.00,60.50
# The lines below this comment are in groups of 2.
# The formats of the lines in each of these groups are as follows:
#
# Line 1:
#     Col. 1: Time results were received.
#     Col. 2: MD5 hash of participant's IP address.
#     Col. 3: Controller name.
#     Col. 4: Item number.
#     Col. 5: Element number.
#     Col. 6: Type.
#     Col. 7: Group.
#     Col. 8: html.
#     Col. 9: startValue.
#     Col. 10: endValue.
#     Col. 11: value.
# Line 2:
#     Col. 1: Time results were received.
#     Col. 2: MD5 hash of participant's IP address.
#     Col. 3: Controller name.
#     Col. 4: Item number.
#     Col. 5: Element number.
#     Col. 6: Type.
#     Col. 7: Group.
#     Col. 8: Sentence (or sentence MD5).
1566402406,74e087c0b84bb8061a4e57ef635b75c7,MultiSlider,47,0,EveryNot.Some.NoneBias,13,<b> Some but not all </b> of the books have been cataloged,0.00,100.00,95.83
1566402406,74e087c0b84bb8061a4e57ef635b75c7,MultiSlider,74,0,EveryNot.None.NoneBias,22,The unsuccessful broker has made some risky investments in the stock market. He nervously stared at the monitor%2C because his house may be foreclosed if none of the investments pay off.
# The lines below this comment are in groups of 2.
# The formats of the lines in each of these groups are as follows:
#
# Line 1:
#     Col. 1: Time results were received.
#     Col. 2: MD5 hash of participant's IP address.
#     Col. 3: Controller name.
#     Col. 4: Item number.
#     Col. 5: Element number.
#     Col. 6: Type.
#     Col. 7: Group.
#     Col. 8: Sentence (or sentence MD5).
# Line 2:
#     Col. 1: Time results were received.
#     Col. 2: MD5 hash of participant's IP address.
#     Col. 3: Controller name.
#     Col. 4: Item number.
#     Col. 5: Element number.
#     Col. 6: Type.
#     Col. 7: Group.
#     Col. 8: html1.
#     Col. 9: startValue.
#     Col. 10: endValue.
#     Col. 11: value.
1566402406,74e087c0b84bb8061a4e57ef635b75c7,MultiSlider,74,0,EveryNot.None.NoneBias,22,How likely are the following situations?
1566402406,74e087c0b84bb8061a4e57ef635b75c7,MultiSlider,74,0,EveryNot.None.NoneBias,22,<b> All </b> of the investments paid off,0.00,100.00,4.83
# The lines below this comment are in groups of 2.
# The formats of the lines in each of these groups are as follows:
#
# Line 1:
#     Col. 1: Time results were received.
#     Col. 2: MD5 hash of participant's IP address.
#     Col. 3: Controller name.
#     Col. 4: Item number.
#     Col. 5: Element number.
#     Col. 6: Type.
#     Col. 7: Group.
#     Col. 8: html2.
#     Col. 9: startValue.
#     Col. 10: endValue.
#     Col. 11: value.
# Line 2:
#     Col. 1: Time results were received.
#     Col. 2: MD5 hash of participant's IP address.
#     Col. 3: Controller name.
#     Col. 4: Item number.
#     Col. 5: Element number.
#     Col. 6: Type.
#     Col. 7: Group.
#     Col. 8: html.
#     Col. 9: startValue.
#     Col. 10: endValue.
#     Col. 11: value.
1566402406,74e087c0b84bb8061a4e57ef635b75c7,MultiSlider,74,0,EveryNot.None.NoneBias,22,<b> None </b> of the investments paid off,0.00,100.00,93.17
1566402406,74e087c0b84bb8061a4e57ef635b75c7,MultiSlider,74,0,EveryNot.None.NoneBias,22,<b> Some but not all </b> of the investments paid off,0.00,100.00,57.83
# Columns below this comment are as follows:
# 1. Time results were received.
# 2. MD5 hash of participant's IP address.
# 3. Controller name.
# 4. Item number.
# 5. Element number.
# 6. Type.
# 7. Group.
# 8. Sentence (or sentence MD5).
1566402406,74e087c0b84bb8061a4e57ef635b75c7,MultiSlider,70,0,EveryNot.None.AllBias,21,Julia is a straight-A student. This semester%2C she enrolled for the easiest classes. After the semester%2C her mother phoned her to find out if her daughter had made a mess of all of her classes.
1566402406,74e087c0b84bb8061a4e57ef635b75c7,MultiSlider,70,0,EveryNot.None.AllBias,21,How likely are the following situations?
# The lines below this comment are in groups of 2.
# The formats of the lines in each of these groups are as follows:
#
# Line 1:
#     Col. 1: Time results were received.
#     Col. 2: MD5 hash of participant's IP address.
#     Col. 3: Controller name.
#     Col. 4: Item number.
#     Col. 5: Element number.
#     Col. 6: Type.
#     Col. 7: Group.
#     Col. 8: html1.
#     Col. 9: startValue.
#     Col. 10: endValue.
#     Col. 11: value.
# Line 2:
#     Col. 1: Time results were received.
#     Col. 2: MD5 hash of participant's IP address.
#     Col. 3: Controller name.
#     Col. 4: Item number.
#     Col. 5: Element number.
#     Col. 6: Type.
#     Col. 7: Group.
#     Col. 8: html.
#     Col. 9: startValue.
#     Col. 10: endValue.
#     Col. 11: value.
1566402406,74e087c0b84bb8061a4e57ef635b75c7,MultiSlider,70,0,EveryNot.None.AllBias,21, Julia didn't fail<b> any of </b>the classes,0.00,100.00,85.17
1566402406,74e087c0b84bb8061a4e57ef635b75c7,MultiSlider,70,0,EveryNot.None.AllBias,21, Julia failed<b> all of </b>the classes,0.00,100.00,16.50
# Columns below this comment are as follows:
# 1. Time results were received.
# 2. MD5 hash of participant's IP address.
# 3. Controller name.
# 4. Item number.
# 5. Element number.
# 6. Type.
# 7. Group.
# 8. Sentence (or sentence MD5).
1566402406,74e087c0b84bb8061a4e57ef635b75c7,MultiSlider,48,0,EveryNot.Some.HowManyBias,14,Roy recently started a career as a professional gamer. A journalist interviewed him%2C and asked how many of the five Major League Gaming tournaments he had been invited to.
1566402406,74e087c0b84bb8061a4e57ef635b75c7,MultiSlider,48,0,EveryNot.Some.HowManyBias,14,How likely are the following situations?
# Columns below this comment are as follows:
# 1. Time results were received.
# 2. MD5 hash of participant's IP address.
# 3. Controller name.
# 4. Item number.
# 5. Element number.
# 6. Type.
# 7. Group.
# 8. html1.
# 9. startValue.
# 10. endValue.
# 11. value.
1566402406,74e087c0b84bb8061a4e57ef635b75c7,MultiSlider,48,0,EveryNot.Some.HowManyBias,14, Roy has been invited to<b> some but not all of </b>the Major League Gaming tournaments,0.00,100.00,75.83
1566402406,74e087c0b84bb8061a4e57ef635b75c7,MultiSlider,48,0,EveryNot.Some.HowManyBias,14, Roy has been invited to<b> some but not all of </b>the Major League Gaming tournaments,0.00,100.00,67.50
# The lines below this comment are in groups of 2.
# The formats of the lines in each of these groups are as follows:
#
# Line 1:
#     Col. 1: Time results were received.
#     Col. 2: MD5 hash of participant's IP address.
#     Col. 3: Controller name.
#     Col. 4: Item number.
#     Col. 5: Element number.
#     Col. 6: Type.
#     Col. 7: Group.
#     Col. 8: html2.
#     Col. 9: startValue.
#     Col. 10: endValue.
#     Col. 11: value.
# Line 2:
#     Col. 1: Time results were received.
#     Col. 2: MD5 hash of participant's IP address.
#     Col. 3: Controller name.
#     Col. 4: Item number.
#     Col. 5: Element number.
#     Col. 6: Type.
#     Col. 7: Group.
#     Col. 8: html.
#     Col. 9: startValue.
#     Col. 10: endValue.
#     Col. 11: value.
1566402406,74e087c0b84bb8061a4e57ef635b75c7,MultiSlider,48,0,EveryNot.Some.HowManyBias,14, Roy has been invited to<b> all of </b>the Major League Gaming tournaments,0.00,100.00,8.17
1566402406,74e087c0b84bb8061a4e57ef635b75c7,MultiSlider,48,0,EveryNot.Some.HowManyBias,14, Roy hasn't been invited to<b> any of </b>the Major League Gaming tournaments,0.00,100.00,63.50
# Columns below this comment are as follows:
# 1. Time results were received.
# 2. MD5 hash of participant's IP address.
# 3. Controller name.
# 4. Item number.
# 5. Element number.
# 6. Type.
# 7. Group.
# 8. Sentence (or sentence MD5).
1566402406,74e087c0b84bb8061a4e57ef635b75c7,MultiSlider,16,0,EveryNot.All.AllBias,3,Rachel is an industrious teaching assistant who has to grade student essays. After a week%2C her boss asks if she is ready to enter the grades into the school system.
1566402406,74e087c0b84bb8061a4e57ef635b75c7,MultiSlider,16,0,EveryNot.All.AllBias,3,How likely are the following situations?
# The lines below this comment are in groups of 2.
# The formats of the lines in each of these groups are as follows:
#
# Line 1:
#     Col. 1: Time results were received.
#     Col. 2: MD5 hash of participant's IP address.
#     Col. 3: Controller name.
#     Col. 4: Item number.
#     Col. 5: Element number.
#     Col. 6: Type.
#     Col. 7: Group.
#     Col. 8: html1.
#     Col. 9: startValue.
#     Col. 10: endValue.
#     Col. 11: value.
# Line 2:
#     Col. 1: Time results were received.
#     Col. 2: MD5 hash of participant's IP address.
#     Col. 3: Controller name.
#     Col. 4: Item number.
#     Col. 5: Element number.
#     Col. 6: Type.
#     Col. 7: Group.
#     Col. 8: html2.
#     Col. 9: startValue.
#     Col. 10: endValue.
#     Col. 11: value.
1566402406,74e087c0b84bb8061a4e57ef635b75c7,MultiSlider,16,0,EveryNot.All.AllBias,3,<b> None </b> of the student essays were graded,0.00,100.00,16.83
1566402406,74e087c0b84bb8061a4e57ef635b75c7,MultiSlider,16,0,EveryNot.All.AllBias,3,<b> Some but not all </b> of the student essays were graded,0.00,100.00,84.17
# The lines below this comment are in groups of 2.
# The formats of the lines in each of these groups are as follows:
#
# Line 1:
#     Col. 1: Time results were received.
#     Col. 2: MD5 hash of participant's IP address.
#     Col. 3: Controller name.
#     Col. 4: Item number.
#     Col. 5: Element number.
#     Col. 6: Type.
#     Col. 7: Group.
#     Col. 8: html.
#     Col. 9: startValue.
#     Col. 10: endValue.
#     Col. 11: value.
# Line 2:
#     Col. 1: Time results were received.
#     Col. 2: MD5 hash of participant's IP address.
#     Col. 3: Controller name.
#     Col. 4: Item number.
#     Col. 5: Element number.
#     Col. 6: Type.
#     Col. 7: Group.
#     Col. 8: Sentence (or sentence MD5).
1566402406,74e087c0b84bb8061a4e57ef635b75c7,MultiSlider,16,0,EveryNot.All.AllBias,3,<b> All </b> of the student essays were graded,0.00,100.00,60.17
1566402406,74e087c0b84bb8061a4e57ef635b75c7,MultiSlider,34,0,EveryNot.Some.AllBias,9,The teacher has just finished correcting exams. The dean wants an update because the school will receive an increase in federal funds if all of the students passed.
# The lines below this comment are in groups of 2.
# The formats of the lines in each of these groups are as follows:
#
# Line 1:
#     Col. 1: Time results were received.
#     Col. 2: MD5 hash of participant's IP address.
#     Col. 3: Controller name.
#     Col. 4: Item number.
#     Col. 5: Element number.
#     Col. 6: Type.
#     Col. 7: Group.
#     Col. 8: Sentence (or sentence MD5).
# Line 2:
#     Col. 1: Time results were received.
#     Col. 2: MD5 hash of participant's IP address.
#     Col. 3: Controller name.
#     Col. 4: Item number.
#     Col. 5: Element number.
#     Col. 6: Type.
#     Col. 7: Group.
#     Col. 8: html1.
#     Col. 9: startValue.
#     Col. 10: endValue.
#     Col. 11: value.
1566402406,74e087c0b84bb8061a4e57ef635b75c7,MultiSlider,34,0,EveryNot.Some.AllBias,9,How likely are the following situations?
1566402406,74e087c0b84bb8061a4e57ef635b75c7,MultiSlider,34,0,EveryNot.Some.AllBias,9,<b> None </b> of the students passed the exam,0.00,100.00,0.17
# The lines below this comment are in groups of 2.
# The formats of the lines in each of these groups are as follows:
#
# Line 1:
#     Col. 1: Time results were received.
#     Col. 2: MD5 hash of participant's IP address.
#     Col. 3: Controller name.
#     Col. 4: Item number.
#     Col. 5: Element number.
#     Col. 6: Type.
#     Col. 7: Group.
#     Col. 8: html2.
#     Col. 9: startValue.
#     Col. 10: endValue.
#     Col. 11: value.
# Line 2:
#     Col. 1: Time results were received.
#     Col. 2: MD5 hash of participant's IP address.
#     Col. 3: Controller name.
#     Col. 4: Item number.
#     Col. 5: Element number.
#     Col. 6: Type.
#     Col. 7: Group.
#     Col. 8: html.
#     Col. 9: startValue.
#     Col. 10: endValue.
#     Col. 11: value.
1566402406,74e087c0b84bb8061a4e57ef635b75c7,MultiSlider,34,0,EveryNot.Some.AllBias,9,<b> Some but not all </b> of the students passed the exam,0.00,100.00,93.50
1566402406,74e087c0b84bb8061a4e57ef635b75c7,MultiSlider,34,0,EveryNot.Some.AllBias,9,<b> All </b> of the students passed the exam,0.00,100.00,39.83
# Columns below this comment are as follows:
# 1. Time results were received.
# 2. MD5 hash of participant's IP address.
# 3. Controller name.
# 4. Item number.
# 5. Element number.
# 6. Type.
# 7. Group.
# 8. Sentence (or sentence MD5).
1566402406,74e087c0b84bb8061a4e57ef635b75c7,MultiSlider,56,0,EveryNot.Some.NoneBias,16,A tech start-up is facing some financial issues. During an HR meeting%2C the board debated whether they had to downsize.
1566402406,74e087c0b84bb8061a4e57ef635b75c7,MultiSlider,56,0,EveryNot.Some.NoneBias,16,How likely are the following situations?
# The lines below this comment are in groups of 2.
# The formats of the lines in each of these groups are as follows:
#
# Line 1:
#     Col. 1: Time results were received.
#     Col. 2: MD5 hash of participant's IP address.
#     Col. 3: Controller name.
#     Col. 4: Item number.
#     Col. 5: Element number.
#     Col. 6: Type.
#     Col. 7: Group.
#     Col. 8: html1.
#     Col. 9: startValue.
#     Col. 10: endValue.
#     Col. 11: value.
# Line 2:
#     Col. 1: Time results were received.
#     Col. 2: MD5 hash of participant's IP address.
#     Col. 3: Controller name.
#     Col. 4: Item number.
#     Col. 5: Element number.
#     Col. 6: Type.
#     Col. 7: Group.
#     Col. 8: html2.
#     Col. 9: startValue.
#     Col. 10: endValue.
#     Col. 11: value.
1566402406,74e087c0b84bb8061a4e57ef635b75c7,MultiSlider,56,0,EveryNot.Some.NoneBias,16,<b> All </b> of the employees will be fired,0.00,100.00,0.17
1566402406,74e087c0b84bb8061a4e57ef635b75c7,MultiSlider,56,0,EveryNot.Some.NoneBias,16,<b> None </b> of the employees will be fired,0.00,100.00,19.50
# Columns below this comment are as follows:
# 1. Time results were received.
# 2. MD5 hash of participant's IP address.
# 3. Controller name.
# 4. Item number.
# 5. Element number.
# 6. Type.
# 7. Group.
# 8. html2.
# 9. startValue.
# 10. endValue.
# 11. value.
1566402406,74e087c0b84bb8061a4e57ef635b75c7,MultiSlider,56,0,EveryNot.Some.NoneBias,16,<b> None </b> of the employees will be fired,0.00,100.00,36.50
1566402406,74e087c0b84bb8061a4e57ef635b75c7,MultiSlider,56,0,EveryNot.Some.NoneBias,16,<b> None </b> of the employees will be fired,0.00,100.00,29.50
1566402406,74e087c0b84bb8061a4e57ef635b75c7,MultiSlider,56,0,EveryNot.Some.NoneBias,16,<b> None </b> of the employees will be fired,0.00,100.00,38.50
# The lines below this comment are in groups of 2.
# The formats of the lines in each of these groups are as follows:
#
# Line 1:
#     Col. 1: Time results were received.
#     Col. 2: MD5 hash of participant's IP address.
#     Col. 3: Controller name.
#     Col. 4: Item number.
#     Col. 5: Element number.
#     Col. 6: Type.
#     Col. 7: Group.
#     Col. 8: html.
#     Col. 9: startValue.
#     Col. 10: endValue.
#     Col. 11: value.
# Line 2:
#     Col. 1: Time results were received.
#     Col. 2: MD5 hash of participant's IP address.
#     Col. 3: Controller name.
#     Col. 4: Item number.
#     Col. 5: Element number.
#     Col. 6: Type.
#     Col. 7: Group.
#     Col. 8: Sentence (or sentence MD5).
1566402406,74e087c0b84bb8061a4e57ef635b75c7,MultiSlider,56,0,EveryNot.Some.NoneBias,16,<b> Some but not all </b> of the employees will be fired,0.00,100.00,76.17
1566402406,74e087c0b84bb8061a4e57ef635b75c7,MultiSlider,66,0,EveryNot.None.HowManyBias,20,Helena is a mediocre athlete who made a resolution to win three Olympic medals this year. Her coach thought that she would be motivated by the prizes%2C which was proportional to her performance in the game.
# The lines below this comment are in groups of 2.
# The formats of the lines in each of these groups are as follows:
#
# Line 1:
#     Col. 1: Time results were received.
#     Col. 2: MD5 hash of participant's IP address.
#     Col. 3: Controller name.
#     Col. 4: Item number.
#     Col. 5: Element number.
#     Col. 6: Type.
#     Col. 7: Group.
#     Col. 8: Sentence (or sentence MD5).
# Line 2:
#     Col. 1: Time results were received.
#     Col. 2: MD5 hash of participant's IP address.
#     Col. 3: Controller name.
#     Col. 4: Item number.
#     Col. 5: Element number.
#     Col. 6: Type.
#     Col. 7: Group.
#     Col. 8: html2.
#     Col. 9: startValue.
#     Col. 10: endValue.
#     Col. 11: value.
1566402406,74e087c0b84bb8061a4e57ef635b75c7,MultiSlider,66,0,EveryNot.None.HowManyBias,20,How likely are the following situations?
1566402406,74e087c0b84bb8061a4e57ef635b75c7,MultiSlider,66,0,EveryNot.None.HowManyBias,20, She won<b> all of </b>the medals,0.00,100.00,9.50
# Columns below this comment are as follows:
# 1. Time results were received.
# 2. MD5 hash of participant's IP address.
# 3. Controller name.
# 4. Item number.
# 5. Element number.
# 6. Type.
# 7. Group.
# 8. html2.
# 9. startValue.
# 10. endValue.
# 11. value.
1566402406,74e087c0b84bb8061a4e57ef635b75c7,MultiSlider,66,0,EveryNot.None.HowManyBias,20, She won<b> all of </b>the medals,0.00,100.00,29.50
1566402406,74e087c0b84bb8061a4e57ef635b75c7,MultiSlider,66,0,EveryNot.None.HowManyBias,20, She won<b> all of </b>the medals,0.00,100.00,21.17
# The lines below this comment are in groups of 2.
# The formats of the lines in each of these groups are as follows:
#
# Line 1:
#     Col. 1: Time results were received.
#     Col. 2: MD5 hash of participant's IP address.
#     Col. 3: Controller name.
#     Col. 4: Item number.
#     Col. 5: Element number.
#     Col. 6: Type.
#     Col. 7: Group.
#     Col. 8: html.
#     Col. 9: startValue.
#     Col. 10: endValue.
#     Col. 11: value.
# Line 2:
#     Col. 1: Time results were received.
#     Col. 2: MD5 hash of participant's IP address.
#     Col. 3: Controller name.
#     Col. 4: Item number.
#     Col. 5: Element number.
#     Col. 6: Type.
#     Col. 7: Group.
#     Col. 8: Sentence (or sentence MD5).
1566402406,74e087c0b84bb8061a4e57ef635b75c7,MultiSlider,66,0,EveryNot.None.HowManyBias,20, She didn't win<b> any of </b>the medals,0.00,100.00,93.50
1566402406,74e087c0b84bb8061a4e57ef635b75c7,MultiSlider,11,0,EveryNot.All.NoneBias,1,The whole kindergarten was going on a field trip. The teacher jumped on the bus to see if any children had got on the bus.
# The lines below this comment are in groups of 2.
# The formats of the lines in each of these groups are as follows:
#
# Line 1:
#     Col. 1: Time results were received.
#     Col. 2: MD5 hash of participant's IP address.
#     Col. 3: Controller name.
#     Col. 4: Item number.
#     Col. 5: Element number.
#     Col. 6: Type.
#     Col. 7: Group.
#     Col. 8: Sentence (or sentence MD5).
# Line 2:
#     Col. 1: Time results were received.
#     Col. 2: MD5 hash of participant's IP address.
#     Col. 3: Controller name.
#     Col. 4: Item number.
#     Col. 5: Element number.
#     Col. 6: Type.
#     Col. 7: Group.
#     Col. 8: html1.
#     Col. 9: startValue.
#     Col. 10: endValue.
#     Col. 11: value.
1566402406,74e087c0b84bb8061a4e57ef635b75c7,MultiSlider,11,0,EveryNot.All.NoneBias,1,How likely are the following situations?
1566402406,74e087c0b84bb8061a4e57ef635b75c7,MultiSlider,11,0,EveryNot.All.NoneBias,1,<b> All </b> of the kindergartners got on the bus,0.00,100.00,70.50
# The lines below this comment are in groups of 2.
# The formats of the lines in each of these groups are as follows:
#
# Line 1:
#     Col. 1: Time results were received.
#     Col. 2: MD5 hash of participant's IP address.
#     Col. 3: Controller name.
#     Col. 4: Item number.
#     Col. 5: Element number.
#     Col. 6: Type.
#     Col. 7: Group.
#     Col. 8: html2.
#     Col. 9: startValue.
#     Col. 10: endValue.
#     Col. 11: value.
# Line 2:
#     Col. 1: Time results were received.
#     Col. 2: MD5 hash of participant's IP address.
#     Col. 3: Controller name.
#     Col. 4: Item number.
#     Col. 5: Element number.
#     Col. 6: Type.
#     Col. 7: Group.
#     Col. 8: html.
#     Col. 9: startValue.
#     Col. 10: endValue.
#     Col. 11: value.
1566402406,74e087c0b84bb8061a4e57ef635b75c7,MultiSlider,11,0,EveryNot.All.NoneBias,1,<b> None </b> of the kindergartners got on the bus,0.00,100.00,12.50
1566402406,74e087c0b84bb8061a4e57ef635b75c7,MultiSlider,11,0,EveryNot.All.NoneBias,1,<b> Some but not all </b> of the kindergartners got on the bus,0.00,100.00,64.17
# Columns below this comment are as follows:
# 1. Time results were received.
# 2. MD5 hash of participant's IP address.
# 3. Controller name.
# 4. Item number.
# 5. Element number.
# 6. Type.
# 7. Group.
# 8. Sentence (or sentence MD5).
1566402406,74e087c0b84bb8061a4e57ef635b75c7,MultiSlider,43,0,EveryNot.Some.AllBias,12,Sue and Marc went to a two-day science exhibition. On the first day%2C the organizers approached them and asked if they had seen everything yet.
1566402406,74e087c0b84bb8061a4e57ef635b75c7,MultiSlider,43,0,EveryNot.Some.AllBias,12,How likely are the following situations?
# The lines below this comment are in groups of 2.
# The formats of the lines in each of these groups are as follows:
#
# Line 1:
#     Col. 1: Time results were received.
#     Col. 2: MD5 hash of participant's IP address.
#     Col. 3: Controller name.
#     Col. 4: Item number.
#     Col. 5: Element number.
#     Col. 6: Type.
#     Col. 7: Group.
#     Col. 8: html2.
#     Col. 9: startValue.
#     Col. 10: endValue.
#     Col. 11: value.
# Line 2:
#     Col. 1: Time results were received.
#     Col. 2: MD5 hash of participant's IP address.
#     Col. 3: Controller name.
#     Col. 4: Item number.
#     Col. 5: Element number.
#     Col. 6: Type.
#     Col. 7: Group.
#     Col. 8: html.
#     Col. 9: startValue.
#     Col. 10: endValue.
#     Col. 11: value.
1566402406,74e087c0b84bb8061a4e57ef635b75c7,MultiSlider,43,0,EveryNot.Some.AllBias,12,Sue and Marc have visited<b> some but not all of </b>the booths so far,0.00,100.00,95.50
1566402406,74e087c0b84bb8061a4e57ef635b75c7,MultiSlider,43,0,EveryNot.Some.AllBias,12,Sue and Marc have visited<b> all of </b>the booths so far,0.00,100.00,4.50
# Columns below this comment are as follows:
# 1. Time results were received.
# 2. MD5 hash of participant's IP address.
# 3. Controller name.
# 4. Item number.
# 5. Element number.
# 6. Type.
# 7. Group.
# 8. Sentence (or sentence MD5).
1566402406,74e087c0b84bb8061a4e57ef635b75c7,MultiSlider,21,0,EveryNot.All.HowManyBias,5,Paula is a dedicated store assistant. A week ago%2C five boxes of new products had arrived at the store. Her manager asked how many of the boxes Paula had opened.
1566402406,74e087c0b84bb8061a4e57ef635b75c7,MultiSlider,21,0,EveryNot.All.HowManyBias,5,How likely are the following situations?
# Columns below this comment are as follows:
# 1. Time results were received.
# 2. MD5 hash of participant's IP address.
# 3. Controller name.
# 4. Item number.
# 5. Element number.
# 6. Type.
# 7. Group.
# 8. html1.
# 9. startValue.
# 10. endValue.
# 11. value.
1566402406,74e087c0b84bb8061a4e57ef635b75c7,MultiSlider,21,0,EveryNot.All.HowManyBias,5,<b> Some but not all </b> of the boxes have been opened,0.00,100.00,74.17
1566402406,74e087c0b84bb8061a4e57ef635b75c7,MultiSlider,21,0,EveryNot.All.HowManyBias,5,<b> Some but not all </b> of the boxes have been opened,0.00,100.00,64.50
# The lines below this comment are in groups of 2.
# The formats of the lines in each of these groups are as follows:
#
# Line 1:
#     Col. 1: Time results were received.
#     Col. 2: MD5 hash of participant's IP address.
#     Col. 3: Controller name.
#     Col. 4: Item number.
#     Col. 5: Element number.
#     Col. 6: Type.
#     Col. 7: Group.
#     Col. 8: html2.
#     Col. 9: startValue.
#     Col. 10: endValue.
#     Col. 11: value.
# Line 2:
#     Col. 1: Time results were received.
#     Col. 2: MD5 hash of participant's IP address.
#     Col. 3: Controller name.
#     Col. 4: Item number.
#     Col. 5: Element number.
#     Col. 6: Type.
#     Col. 7: Group.
#     Col. 8: html.
#     Col. 9: startValue.
#     Col. 10: endValue.
#     Col. 11: value.
1566402406,74e087c0b84bb8061a4e57ef635b75c7,MultiSlider,21,0,EveryNot.All.HowManyBias,5,<b> All </b> of the boxes have been opened,0.00,100.00,76.83
1566402406,74e087c0b84bb8061a4e57ef635b75c7,MultiSlider,21,0,EveryNot.All.HowManyBias,5,<b> None </b> of the boxes have been opened,0.00,100.00,19.17
# Columns below this comment are as follows:
# 1. Time results were received.
# 2. MD5 hash of participant's IP address.
# 3. Controller name.
# 4. Item number.
# 5. Element number.
# 6. Type.
# 7. Group.
# 8. Sentence (or sentence MD5).
1566402406,74e087c0b84bb8061a4e57ef635b75c7,MultiSlider,20,0,EveryNot.All.NoneBias,4,The couple has been planning their wedding for next month. The bride asks her future husband if he has started writing the invitations.
1566402406,74e087c0b84bb8061a4e57ef635b75c7,MultiSlider,20,0,EveryNot.All.NoneBias,4,How likely are the following situations?
# The lines below this comment are in groups of 2.
# The formats of the lines in each of these groups are as follows:
#
# Line 1:
#     Col. 1: Time results were received.
#     Col. 2: MD5 hash of participant's IP address.
#     Col. 3: Controller name.
#     Col. 4: Item number.
#     Col. 5: Element number.
#     Col. 6: Type.
#     Col. 7: Group.
#     Col. 8: html1.
#     Col. 9: startValue.
#     Col. 10: endValue.
#     Col. 11: value.
# Line 2:
#     Col. 1: Time results were received.
#     Col. 2: MD5 hash of participant's IP address.
#     Col. 3: Controller name.
#     Col. 4: Item number.
#     Col. 5: Element number.
#     Col. 6: Type.
#     Col. 7: Group.
#     Col. 8: html2.
#     Col. 9: startValue.
#     Col. 10: endValue.
#     Col. 11: value.
1566402406,74e087c0b84bb8061a4e57ef635b75c7,MultiSlider,20,0,EveryNot.All.NoneBias,4,<b> All </b> of the wedding invitations have been written,0.00,100.00,39.17
1566402406,74e087c0b84bb8061a4e57ef635b75c7,MultiSlider,20,0,EveryNot.All.NoneBias,4,<b> None </b> of the wedding invitations have been written,0.00,100.00,63.50
# The lines below this comment are in groups of 2.
# The formats of the lines in each of these groups are as follows:
#
# Line 1:
#     Col. 1: Time results were received.
#     Col. 2: MD5 hash of participant's IP address.
#     Col. 3: Controller name.
#     Col. 4: Item number.
#     Col. 5: Element number.
#     Col. 6: Type.
#     Col. 7: Group.
#     Col. 8: html.
#     Col. 9: startValue.
#     Col. 10: endValue.
#     Col. 11: value.
# Line 2:
#     Col. 1: Time results were received.
#     Col. 2: MD5 hash of participant's IP address.
#     Col. 3: Controller name.
#     Col. 4: Item number.
#     Col. 5: Element number.
#     Col. 6: Type.
#     Col. 7: Group.
#     Col. 8: Sentence (or sentence MD5).
1566402406,74e087c0b84bb8061a4e57ef635b75c7,MultiSlider,20,0,EveryNot.All.NoneBias,4,<b> Some but not all </b> of the wedding invitations have been written,0.00,100.00,60.17
1566402406,74e087c0b84bb8061a4e57ef635b75c7,MultiSlider,75,0,EveryNot.None.HowManyBias,23,The hospital has the best doctors in the country. One day%2C five patients had to be operated on for fractures in arms and legs. Afterwards%2C a news reporter asked how many of the patients had been successfully treated.
# The lines below this comment are in groups of 2.
# The formats of the lines in each of these groups are as follows:
#
# Line 1:
#     Col. 1: Time results were received.
#     Col. 2: MD5 hash of participant's IP address.
#     Col. 3: Controller name.
#     Col. 4: Item number.
#     Col. 5: Element number.
#     Col. 6: Type.
#     Col. 7: Group.
#     Col. 8: Sentence (or sentence MD5).
# Line 2:
#     Col. 1: Time results were received.
#     Col. 2: MD5 hash of participant's IP address.
#     Col. 3: Controller name.
#     Col. 4: Item number.
#     Col. 5: Element number.
#     Col. 6: Type.
#     Col. 7: Group.
#     Col. 8: html1.
#     Col. 9: startValue.
#     Col. 10: endValue.
#     Col. 11: value.
1566402406,74e087c0b84bb8061a4e57ef635b75c7,MultiSlider,75,0,EveryNot.None.HowManyBias,23,How likely are the following situations?
1566402406,74e087c0b84bb8061a4e57ef635b75c7,MultiSlider,75,0,EveryNot.None.HowManyBias,23,<b> Some but not all </b> of the operations were successful,0.00,100.00,75.83
# The lines below this comment are in groups of 2.
# The formats of the lines in each of these groups are as follows:
#
# Line 1:
#     Col. 1: Time results were received.
#     Col. 2: MD5 hash of participant's IP address.
#     Col. 3: Controller name.
#     Col. 4: Item number.
#     Col. 5: Element number.
#     Col. 6: Type.
#     Col. 7: Group.
#     Col. 8: html1.
#     Col. 9: startValue.
#     Col. 10: endValue.
#     Col. 11: value.
# Line 2:
#     Col. 1: Time results were received.
#     Col. 2: MD5 hash of participant's IP address.
#     Col. 3: Controller name.
#     Col. 4: Item number.
#     Col. 5: Element number.
#     Col. 6: Type.
#     Col. 7: Group.
#     Col. 8: html2.
#     Col. 9: startValue.
#     Col. 10: endValue.
#     Col. 11: value.
1566402406,74e087c0b84bb8061a4e57ef635b75c7,MultiSlider,75,0,EveryNot.None.HowManyBias,23,<b> Some but not all </b> of the operations were successful,0.00,100.00,67.17
1566402406,74e087c0b84bb8061a4e57ef635b75c7,MultiSlider,75,0,EveryNot.None.HowManyBias,23,<b> All </b> of the operations were successful,0.00,100.00,83.17
# The lines below this comment are in groups of 2.
# The formats of the lines in each of these groups are as follows:
#
# Line 1:
#     Col. 1: Time results were received.
#     Col. 2: MD5 hash of participant's IP address.
#     Col. 3: Controller name.
#     Col. 4: Item number.
#     Col. 5: Element number.
#     Col. 6: Type.
#     Col. 7: Group.
#     Col. 8: html.
#     Col. 9: startValue.
#     Col. 10: endValue.
#     Col. 11: value.
# Line 2:
#     Col. 1: Time results were received.
#     Col. 2: MD5 hash of participant's IP address.
#     Col. 3: Controller name.
#     Col. 4: Item number.
#     Col. 5: Element number.
#     Col. 6: Type.
#     Col. 7: Group.
#     Col. 8: Sentence (or sentence MD5).
1566402406,74e087c0b84bb8061a4e57ef635b75c7,MultiSlider,75,0,EveryNot.None.HowManyBias,23,<b> None </b> of the operations were successful,0.00,100.00,28.17
1566402406,74e087c0b84bb8061a4e57ef635b75c7,MultiSlider,65,0,EveryNot.None.NoneBias,19,Bill is an average runner who tried to break five Guinness records of running. At the day of the challenge%2C he doubted himself and wondered if he could even finish a single challenge.
# The lines below this comment are in groups of 2.
# The formats of the lines in each of these groups are as follows:
#
# Line 1:
#     Col. 1: Time results were received.
#     Col. 2: MD5 hash of participant's IP address.
#     Col. 3: Controller name.
#     Col. 4: Item number.
#     Col. 5: Element number.
#     Col. 6: Type.
#     Col. 7: Group.
#     Col. 8: Sentence (or sentence MD5).
# Line 2:
#     Col. 1: Time results were received.
#     Col. 2: MD5 hash of participant's IP address.
#     Col. 3: Controller name.
#     Col. 4: Item number.
#     Col. 5: Element number.
#     Col. 6: Type.
#     Col. 7: Group.
#     Col. 8: html1.
#     Col. 9: startValue.
#     Col. 10: endValue.
#     Col. 11: value.
1566402406,74e087c0b84bb8061a4e57ef635b75c7,MultiSlider,65,0,EveryNot.None.NoneBias,19,How likely are the following situations?
1566402406,74e087c0b84bb8061a4e57ef635b75c7,MultiSlider,65,0,EveryNot.None.NoneBias,19,<b> All </b> of the records were broken in the end,0.00,100.00,17.17
# The lines below this comment are in groups of 2.
# The formats of the lines in each of these groups are as follows:
#
# Line 1:
#     Col. 1: Time results were received.
#     Col. 2: MD5 hash of participant's IP address.
#     Col. 3: Controller name.
#     Col. 4: Item number.
#     Col. 5: Element number.
#     Col. 6: Type.
#     Col. 7: Group.
#     Col. 8: html1.
#     Col. 9: startValue.
#     Col. 10: endValue.
#     Col. 11: value.
# Line 2:
#     Col. 1: Time results were received.
#     Col. 2: MD5 hash of participant's IP address.
#     Col. 3: Controller name.
#     Col. 4: Item number.
#     Col. 5: Element number.
#     Col. 6: Type.
#     Col. 7: Group.
#     Col. 8: html2.
#     Col. 9: startValue.
#     Col. 10: endValue.
#     Col. 11: value.
1566402406,74e087c0b84bb8061a4e57ef635b75c7,MultiSlider,65,0,EveryNot.None.NoneBias,19,<b> All </b> of the records were broken in the end,0.00,100.00,8.17
1566402406,74e087c0b84bb8061a4e57ef635b75c7,MultiSlider,65,0,EveryNot.None.NoneBias,19,<b> None </b> of the records were broken in the end,0.00,100.00,63.17
# The lines below this comment are in groups of 2.
# The formats of the lines in each of these groups are as follows:
#
# Line 1:
#     Col. 1: Time results were received.
#     Col. 2: MD5 hash of participant's IP address.
#     Col. 3: Controller name.
#     Col. 4: Item number.
#     Col. 5: Element number.
#     Col. 6: Type.
#     Col. 7: Group.
#     Col. 8: html2.
#     Col. 9: startValue.
#     Col. 10: endValue.
#     Col. 11: value.
# Line 2:
#     Col. 1: Time results were received.
#     Col. 2: MD5 hash of participant's IP address.
#     Col. 3: Controller name.
#     Col. 4: Item number.
#     Col. 5: Element number.
#     Col. 6: Type.
#     Col. 7: Group.
#     Col. 8: html.
#     Col. 9: startValue.
#     Col. 10: endValue.
#     Col. 11: value.
1566402406,74e087c0b84bb8061a4e57ef635b75c7,MultiSlider,65,0,EveryNot.None.NoneBias,19,<b> None </b> of the records were broken in the end,0.00,100.00,75.83
1566402406,74e087c0b84bb8061a4e57ef635b75c7,MultiSlider,65,0,EveryNot.None.NoneBias,19,<b> Some but not all </b> of the records were broken in the end,0.00,100.00,60.50
# Columns below this comment are as follows:
# 1. Time results were received.
# 2. MD5 hash of participant's IP address.
# 3. Controller name.
# 4. Item number.
# 5. Element number.
# 6. Type.
# 7. Group.
# 8. Sentence (or sentence MD5).
1566402406,74e087c0b84bb8061a4e57ef635b75c7,MultiSlider,30,0,EveryNot.All.HowManyBias,8,A glamorous cocktail event was being held in the Hilton hotel. When guests arrived%2C the receptionist noted down the number of people who correctly followed the dress code.
1566402406,74e087c0b84bb8061a4e57ef635b75c7,MultiSlider,30,0,EveryNot.All.HowManyBias,8,How likely are the following situations?
# The lines below this comment are in groups of 2.
# The formats of the lines in each of these groups are as follows:
#
# Line 1:
#     Col. 1: Time results were received.
#     Col. 2: MD5 hash of participant's IP address.
#     Col. 3: Controller name.
#     Col. 4: Item number.
#     Col. 5: Element number.
#     Col. 6: Type.
#     Col. 7: Group.
#     Col. 8: html1.
#     Col. 9: startValue.
#     Col. 10: endValue.
#     Col. 11: value.
# Line 2:
#     Col. 1: Time results were received.
#     Col. 2: MD5 hash of participant's IP address.
#     Col. 3: Controller name.
#     Col. 4: Item number.
#     Col. 5: Element number.
#     Col. 6: Type.
#     Col. 7: Group.
#     Col. 8: html2.
#     Col. 9: startValue.
#     Col. 10: endValue.
#     Col. 11: value.
1566402406,74e087c0b84bb8061a4e57ef635b75c7,MultiSlider,30,0,EveryNot.All.HowManyBias,8,<b> Some but not all </b> of the guests were dressed properly,0.00,100.00,79.17
1566402406,74e087c0b84bb8061a4e57ef635b75c7,MultiSlider,30,0,EveryNot.All.HowManyBias,8,<b> All </b> of the guests were dressed properly,0.00,100.00,63.17
# The lines below this comment are in groups of 2.
# The formats of the lines in each of these groups are as follows:
#
# Line 1:
#     Col. 1: Time results were received.
#     Col. 2: MD5 hash of participant's IP address.
#     Col. 3: Controller name.
#     Col. 4: Item number.
#     Col. 5: Element number.
#     Col. 6: Type.
#     Col. 7: Group.
#     Col. 8: html.
#     Col. 9: startValue.
#     Col. 10: endValue.
#     Col. 11: value.
# Line 2:
#     Col. 1: Time results were received.
#     Col. 2: MD5 hash of participant's IP address.
#     Col. 3: Controller name.
#     Col. 4: Item number.
#     Col. 5: Element number.
#     Col. 6: Type.
#     Col. 7: Group.
#     Col. 8: Sentence (or sentence MD5).
1566402406,74e087c0b84bb8061a4e57ef635b75c7,MultiSlider,30,0,EveryNot.All.HowManyBias,8,<b> None </b> of the guests were dressed properly,0.00,100.00,29.50
1566402406,74e087c0b84bb8061a4e57ef635b75c7,MultiSlider,57,0,EveryNot.None.HowManyBias,17,Jack is an incompetent homicide detective trying to solve three recent murders. His boss tells him that he will get a bonus depending on his performance.
# The lines below this comment are in groups of 2.
# The formats of the lines in each of these groups are as follows:
#
# Line 1:
#     Col. 1: Time results were received.
#     Col. 2: MD5 hash of participant's IP address.
#     Col. 3: Controller name.
#     Col. 4: Item number.
#     Col. 5: Element number.
#     Col. 6: Type.
#     Col. 7: Group.
#     Col. 8: Sentence (or sentence MD5).
# Line 2:
#     Col. 1: Time results were received.
#     Col. 2: MD5 hash of participant's IP address.
#     Col. 3: Controller name.
#     Col. 4: Item number.
#     Col. 5: Element number.
#     Col. 6: Type.
#     Col. 7: Group.
#     Col. 8: html1.
#     Col. 9: startValue.
#     Col. 10: endValue.
#     Col. 11: value.
1566402406,74e087c0b84bb8061a4e57ef635b75c7,MultiSlider,57,0,EveryNot.None.HowManyBias,17,How likely are the following situations?
1566402406,74e087c0b84bb8061a4e57ef635b75c7,MultiSlider,57,0,EveryNot.None.HowManyBias,17,<b> Some but not all </b> of the cases will be solved,0.00,100.00,97.50
# Columns below this comment are as follows:
# 1. Time results were received.
# 2. MD5 hash of participant's IP address.
# 3. Controller name.
# 4. Item number.
# 5. Element number.
# 6. Type.
# 7. Group.
# 8. html1.
# 9. startValue.
# 10. endValue.
# 11. value.
1566402406,74e087c0b84bb8061a4e57ef635b75c7,MultiSlider,57,0,EveryNot.None.HowManyBias,17,<b> Some but not all </b> of the cases will be solved,0.00,100.00,88.50
1566402406,74e087c0b84bb8061a4e57ef635b75c7,MultiSlider,57,0,EveryNot.None.HowManyBias,17,<b> Some but not all </b> of the cases will be solved,0.00,100.00,73.50
# Columns below this comment are as follows:
# 1. Time results were received.
# 2. MD5 hash of participant's IP address.
# 3. Controller name.
# 4. Item number.
# 5. Element number.
# 6. Type.
# 7. Group.
# 8. html2.
# 9. startValue.
# 10. endValue.
# 11. value.
1566402406,74e087c0b84bb8061a4e57ef635b75c7,MultiSlider,57,0,EveryNot.None.HowManyBias,17,<b> All </b> of the cases will be solved,0.00,100.00,12.50
1566402406,74e087c0b84bb8061a4e57ef635b75c7,MultiSlider,57,0,EveryNot.None.HowManyBias,17,<b> All </b> of the cases will be solved,0.00,100.00,1.83
# The lines below this comment are in groups of 2.
# The formats of the lines in each of these groups are as follows:
#
# Line 1:
#     Col. 1: Time results were received.
#     Col. 2: MD5 hash of participant's IP address.
#     Col. 3: Controller name.
#     Col. 4: Item number.
#     Col. 5: Element number.
#     Col. 6: Type.
#     Col. 7: Group.
#     Col. 8: html.
#     Col. 9: startValue.
#     Col. 10: endValue.
#     Col. 11: value.
# Line 2:
#     Col. 1: Time results were received.
#     Col. 2: MD5 hash of participant's IP address.
#     Col. 3: Controller name.
#     Col. 4: Item number.
#     Col. 5: Element number.
#     Col. 6: Type.
#     Col. 7: Group.
#     Col. 8: Sentence (or sentence MD5).
1566402406,74e087c0b84bb8061a4e57ef635b75c7,MultiSlider,57,0,EveryNot.None.HowManyBias,17,<b> None </b> of the cases will be solved,0.00,100.00,82.83
1566402406,74e087c0b84bb8061a4e57ef635b75c7,MultiSlider,61,0,EveryNot.None.AllBias,18,Paul lives on a sheep farm his parents bought for him%2C but plays video games all day. His parents called him and warned him that he must sell the entire herd to be able to continue living at the farm.
# The lines below this comment are in groups of 2.
# The formats of the lines in each of these groups are as follows:
#
# Line 1:
#     Col. 1: Time results were received.
#     Col. 2: MD5 hash of participant's IP address.
#     Col. 3: Controller name.
#     Col. 4: Item number.
#     Col. 5: Element number.
#     Col. 6: Type.
#     Col. 7: Group.
#     Col. 8: Sentence (or sentence MD5).
# Line 2:
#     Col. 1: Time results were received.
#     Col. 2: MD5 hash of participant's IP address.
#     Col. 3: Controller name.
#     Col. 4: Item number.
#     Col. 5: Element number.
#     Col. 6: Type.
#     Col. 7: Group.
#     Col. 8: html1.
#     Col. 9: startValue.
#     Col. 10: endValue.
#     Col. 11: value.
1566402406,74e087c0b84bb8061a4e57ef635b75c7,MultiSlider,61,0,EveryNot.None.AllBias,18,How likely are the following situations?
1566402406,74e087c0b84bb8061a4e57ef635b75c7,MultiSlider,61,0,EveryNot.None.AllBias,18,<b> None </b> of the sheep will be sold,0.00,100.00,94.17
# The lines below this comment are in groups of 2.
# The formats of the lines in each of these groups are as follows:
#
# Line 1:
#     Col. 1: Time results were received.
#     Col. 2: MD5 hash of participant's IP address.
#     Col. 3: Controller name.
#     Col. 4: Item number.
#     Col. 5: Element number.
#     Col. 6: Type.
#     Col. 7: Group.
#     Col. 8: html1.
#     Col. 9: startValue.
#     Col. 10: endValue.
#     Col. 11: value.
# Line 2:
#     Col. 1: Time results were received.
#     Col. 2: MD5 hash of participant's IP address.
#     Col. 3: Controller name.
#     Col. 4: Item number.
#     Col. 5: Element number.
#     Col. 6: Type.
#     Col. 7: Group.
#     Col. 8: html.
#     Col. 9: startValue.
#     Col. 10: endValue.
#     Col. 11: value.
1566402406,74e087c0b84bb8061a4e57ef635b75c7,MultiSlider,61,0,EveryNot.None.AllBias,18,<b> None </b> of the sheep will be sold,0.00,100.00,86.83
1566402406,74e087c0b84bb8061a4e57ef635b75c7,MultiSlider,61,0,EveryNot.None.AllBias,18,<b> All </b> of the sheep will be sold,0.00,100.00,0.50
# Columns below this comment are as follows:
# 1. Time results were received.
# 2. MD5 hash of participant's IP address.
# 3. Controller name.
# 4. Item number.
# 5. Element number.
# 6. Type.
# 7. Group.
# 8. Sentence (or sentence MD5).
1566402406,74e087c0b84bb8061a4e57ef635b75c7,MultiSlider,79,0,EveryNot.None.AllBias,24,Wayne is a diligent therapist who is always there for his patients. Today%2C he has a minor flu. His assistant asks if she has to clean out his entire schedule for the day.
1566402406,74e087c0b84bb8061a4e57ef635b75c7,MultiSlider,79,0,EveryNot.None.AllBias,24,How likely are the following situations?
# The lines below this comment are in groups of 2.
# The formats of the lines in each of these groups are as follows:
#
# Line 1:
#     Col. 1: Time results were received.
#     Col. 2: MD5 hash of participant's IP address.
#     Col. 3: Controller name.
#     Col. 4: Item number.
#     Col. 5: Element number.
#     Col. 6: Type.
#     Col. 7: Group.
#     Col. 8: html1.
#     Col. 9: startValue.
#     Col. 10: endValue.
#     Col. 11: value.
# Line 2:
#     Col. 1: Time results were received.
#     Col. 2: MD5 hash of participant's IP address.
#     Col. 3: Controller name.
#     Col. 4: Item number.
#     Col. 5: Element number.
#     Col. 6: Type.
#     Col. 7: Group.
#     Col. 8: html2.
#     Col. 9: startValue.
#     Col. 10: endValue.
#     Col. 11: value.
1566402406,74e087c0b84bb8061a4e57ef635b75c7,MultiSlider,79,0,EveryNot.None.AllBias,24,<b> None </b> of the appointments will be cancelled,0.00,100.00,57.17
1566402406,74e087c0b84bb8061a4e57ef635b75c7,MultiSlider,79,0,EveryNot.None.AllBias,24,<b> Some but not all </b> of the appointments will be cancelled,0.00,100.00,77.50
# The lines below this comment are in groups of 2.
# The formats of the lines in each of these groups are as follows:
#
# Line 1:
#     Col. 1: Time results were received.
#     Col. 2: MD5 hash of participant's IP address.
#     Col. 3: Controller name.
#     Col. 4: Item number.
#     Col. 5: Element number.
#     Col. 6: Type.
#     Col. 7: Group.
#     Col. 8: html2.
#     Col. 9: startValue.
#     Col. 10: endValue.
#     Col. 11: value.
# Line 2:
#     Col. 1: Time results were received.
#     Col. 2: MD5 hash of participant's IP address.
#     Col. 3: Controller name.
#     Col. 4: Item number.
#     Col. 5: Element number.
#     Col. 6: Type.
#     Col. 7: Group.
#     Col. 8: html.
#     Col. 9: startValue.
#     Col. 10: endValue.
#     Col. 11: value.
1566402406,74e087c0b84bb8061a4e57ef635b75c7,MultiSlider,79,0,EveryNot.None.AllBias,24,<b> Some but not all </b> of the appointments will be cancelled,0.00,100.00,87.83
1566402406,74e087c0b84bb8061a4e57ef635b75c7,MultiSlider,79,0,EveryNot.None.AllBias,24,<b> All </b> of the appointments will be cancelled,0.00,100.00,38.50
# Columns below this comment are as follows:
# 1. Time results were received.
# 2. MD5 hash of participant's IP address.
# 3. Controller name.
# 4. Item number.
# 5. Element number.
# 6. Type.
# 7. Group.
# 8. Sentence (or sentence MD5).
1566402406,74e087c0b84bb8061a4e57ef635b75c7,MultiSlider,12,0,EveryNot.All.HowManyBias,2,Erin is a vet. During her last trip%2C she encountered six deer in critical condition%2C and she tried to keep as many alive as possible.
1566402406,74e087c0b84bb8061a4e57ef635b75c7,MultiSlider,12,0,EveryNot.All.HowManyBias,2,How likely are the following situations?
# The lines below this comment are in groups of 2.
# The formats of the lines in each of these groups are as follows:
#
# Line 1:
#     Col. 1: Time results were received.
#     Col. 2: MD5 hash of participant's IP address.
#     Col. 3: Controller name.
#     Col. 4: Item number.
#     Col. 5: Element number.
#     Col. 6: Type.
#     Col. 7: Group.
#     Col. 8: html1.
#     Col. 9: startValue.
#     Col. 10: endValue.
#     Col. 11: value.
# Line 2:
#     Col. 1: Time results were received.
#     Col. 2: MD5 hash of participant's IP address.
#     Col. 3: Controller name.
#     Col. 4: Item number.
#     Col. 5: Element number.
#     Col. 6: Type.
#     Col. 7: Group.
#     Col. 8: html2.
#     Col. 9: startValue.
#     Col. 10: endValue.
#     Col. 11: value.
1566402406,74e087c0b84bb8061a4e57ef635b75c7,MultiSlider,12,0,EveryNot.All.HowManyBias,2,<b> Some but not all </b> of the six deer survived,0.00,100.00,78.17
1566402406,74e087c0b84bb8061a4e57ef635b75c7,MultiSlider,12,0,EveryNot.All.HowManyBias,2,<b> All </b> of the six deer survived,0.00,100.00,27.83
# The lines below this comment are in groups of 2.
# The formats of the lines in each of these groups are as follows:
#
# Line 1:
#     Col. 1: Time results were received.
#     Col. 2: MD5 hash of participant's IP address.
#     Col. 3: Controller name.
#     Col. 4: Item number.
#     Col. 5: Element number.
#     Col. 6: Type.
#     Col. 7: Group.
#     Col. 8: html.
#     Col. 9: startValue.
#     Col. 10: endValue.
#     Col. 11: value.
# Line 2:
#     Col. 1: Time results were received.
#     Col. 2: MD5 hash of participant's IP address.
#     Col. 3: Controller name.
#     Col. 4: Item number.
#     Col. 5: Element number.
#     Col. 6: Type.
#     Col. 7: Group.
#     Col. 8: Sentence (or sentence MD5).
1566402406,74e087c0b84bb8061a4e57ef635b75c7,MultiSlider,12,0,EveryNot.All.HowManyBias,2,<b> None </b> of the six deer survived,0.00,100.00,50.00
1566402406,74e087c0b84bb8061a4e57ef635b75c7,MultiSlider,38,0,EveryNot.Some.NoneBias,10,The city council organized a spelling bee competition. As the competition began%2C the parents wondered if their kids would be able to get anything correct.
# The lines below this comment are in groups of 2.
# The formats of the lines in each of these groups are as follows:
#
# Line 1:
#     Col. 1: Time results were received.
#     Col. 2: MD5 hash of participant's IP address.
#     Col. 3: Controller name.
#     Col. 4: Item number.
#     Col. 5: Element number.
#     Col. 6: Type.
#     Col. 7: Group.
#     Col. 8: Sentence (or sentence MD5).
# Line 2:
#     Col. 1: Time results were received.
#     Col. 2: MD5 hash of participant's IP address.
#     Col. 3: Controller name.
#     Col. 4: Item number.
#     Col. 5: Element number.
#     Col. 6: Type.
#     Col. 7: Group.
#     Col. 8: html1.
#     Col. 9: startValue.
#     Col. 10: endValue.
#     Col. 11: value.
1566402406,74e087c0b84bb8061a4e57ef635b75c7,MultiSlider,38,0,EveryNot.Some.NoneBias,10,How likely are the following situations?
1566402406,74e087c0b84bb8061a4e57ef635b75c7,MultiSlider,38,0,EveryNot.Some.NoneBias,10,The kids answered <b> all of </b>the questions correctly,0.00,100.00,6.50
# The lines below this comment are in groups of 2.
# The formats of the lines in each of these groups are as follows:
#
# Line 1:
#     Col. 1: Time results were received.
#     Col. 2: MD5 hash of participant's IP address.
#     Col. 3: Controller name.
#     Col. 4: Item number.
#     Col. 5: Element number.
#     Col. 6: Type.
#     Col. 7: Group.
#     Col. 8: html2.
#     Col. 9: startValue.
#     Col. 10: endValue.
#     Col. 11: value.
# Line 2:
#     Col. 1: Time results were received.
#     Col. 2: MD5 hash of participant's IP address.
#     Col. 3: Controller name.
#     Col. 4: Item number.
#     Col. 5: Element number.
#     Col. 6: Type.
#     Col. 7: Group.
#     Col. 8: html.
#     Col. 9: startValue.
#     Col. 10: endValue.
#     Col. 11: value.
1566402406,74e087c0b84bb8061a4e57ef635b75c7,MultiSlider,38,0,EveryNot.Some.NoneBias,10,The kids didn't answer <b> any of </b>the questions correctly,0.00,100.00,40.17
1566402406,74e087c0b84bb8061a4e57ef635b75c7,MultiSlider,38,0,EveryNot.Some.NoneBias,10,The kids answered <b> some but not all of </b>the questions correctly,0.00,100.00,75.17
# Columns below this comment are as follows:
# 1. Time results were received.
# 2. MD5 hash of participant's IP address.
# 3. Controller name.
# 4. Item number.
# 5. Element number.
# 6. Type.
# 7. Group.
# 8. Sentence (or sentence MD5).
1566402406,74e087c0b84bb8061a4e57ef635b75c7,MultiSlider,25,0,EveryNot.All.AllBias,6,Eric is a professional producer working on a new album. One day%2C he called the composer  to remind him that all the new songs need to have been demoed already.
1566402406,74e087c0b84bb8061a4e57ef635b75c7,MultiSlider,25,0,EveryNot.All.AllBias,6,How likely are the following situations?
# The lines below this comment are in groups of 2.
# The formats of the lines in each of these groups are as follows:
#
# Line 1:
#     Col. 1: Time results were received.
#     Col. 2: MD5 hash of participant's IP address.
#     Col. 3: Controller name.
#     Col. 4: Item number.
#     Col. 5: Element number.
#     Col. 6: Type.
#     Col. 7: Group.
#     Col. 8: html1.
#     Col. 9: startValue.
#     Col. 10: endValue.
#     Col. 11: value.
# Line 2:
#     Col. 1: Time results were received.
#     Col. 2: MD5 hash of participant's IP address.
#     Col. 3: Controller name.
#     Col. 4: Item number.
#     Col. 5: Element number.
#     Col. 6: Type.
#     Col. 7: Group.
#     Col. 8: html2.
#     Col. 9: startValue.
#     Col. 10: endValue.
#     Col. 11: value.
1566402406,74e087c0b84bb8061a4e57ef635b75c7,MultiSlider,25,0,EveryNot.All.AllBias,6,<b> None </b> of the new songs have been demoed,0.00,100.00,63.83
1566402406,74e087c0b84bb8061a4e57ef635b75c7,MultiSlider,25,0,EveryNot.All.AllBias,6,<b> Some but not all </b> of the new songs have been demoed,0.00,100.00,79.50
# The lines below this comment are in groups of 2.
# The formats of the lines in each of these groups are as follows:
#
# Line 1:
#     Col. 1: Time results were received.
#     Col. 2: MD5 hash of participant's IP address.
#     Col. 3: Controller name.
#     Col. 4: Item number.
#     Col. 5: Element number.
#     Col. 6: Type.
#     Col. 7: Group.
#     Col. 8: html2.
#     Col. 9: startValue.
#     Col. 10: endValue.
#     Col. 11: value.
# Line 2:
#     Col. 1: Time results were received.
#     Col. 2: MD5 hash of participant's IP address.
#     Col. 3: Controller name.
#     Col. 4: Item number.
#     Col. 5: Element number.
#     Col. 6: Type.
#     Col. 7: Group.
#     Col. 8: html.
#     Col. 9: startValue.
#     Col. 10: endValue.
#     Col. 11: value.
1566402406,74e087c0b84bb8061a4e57ef635b75c7,MultiSlider,25,0,EveryNot.All.AllBias,6,<b> Some but not all </b> of the new songs have been demoed,0.00,100.00,95.83
1566402406,74e087c0b84bb8061a4e57ef635b75c7,MultiSlider,25,0,EveryNot.All.AllBias,6,<b> All </b> of the new songs have been demoed,0.00,100.00,8.50
# Columns below this comment are as follows:
# 1. Time results were received.
# 2. MD5 hash of participant's IP address.
# 3. Controller name.
# 4. Item number.
# 5. Element number.
# 6. Type.
# 7. Group.
# 8. Field name.
# 9. Field value.
1566402406,74e087c0b84bb8061a4e57ef635b75c7,Form,8,0,end_experiment,NULL,_REACTION_TIME_,3210
#
# Results on Wednesday August 21 2019 15:47:00 UTC.
# USER AGENT: Mozilla/5.0 (Windows NT 10.0; Win64; x64) AppleWebKit/537.36 (KHTML, like Gecko) Chrome/76.0.3809.100 Safari/537.36
# Design number was non-random = 4
#
# Columns below this comment are as follows:
# 1. Time results were received.
# 2. MD5 hash of participant's IP address.
# 3. Controller name.
# 4. Item number.
# 5. Element number.
# 6. Type.
# 7. Group.
# 8. Field name.
# 9. Field value.
1566402420,08ba8739ae6eece5f003793743d66653,Form,7,0,consent,NULL,consent,yes
1566402420,08ba8739ae6eece5f003793743d66653,Form,7,0,consent,NULL,_REACTION_TIME_,2300
1566402420,08ba8739ae6eece5f003793743d66653,Form,1,0,intro,NULL,age,25
1566402420,08ba8739ae6eece5f003793743d66653,Form,1,0,intro,NULL,natlang,English
1566402420,08ba8739ae6eece5f003793743d66653,Form,1,0,intro,NULL,otherlang,no
1566402420,08ba8739ae6eece5f003793743d66653,Form,1,0,intro,NULL,Prolific,5ca518da8919a5000166f4cf
1566402420,08ba8739ae6eece5f003793743d66653,Form,1,0,intro,NULL,gender,male
1566402420,08ba8739ae6eece5f003793743d66653,Form,1,0,intro,NULL,_REACTION_TIME_,18564
1566402420,08ba8739ae6eece5f003793743d66653,Form,2,0,intro1,NULL,_REACTION_TIME_,4467
1566402420,08ba8739ae6eece5f003793743d66653,Form,3,0,intro2,NULL,_REACTION_TIME_,12902
1566402420,08ba8739ae6eece5f003793743d66653,Form,4,0,intro3,NULL,_REACTION_TIME_,5719
# Columns below this comment are as follows:
# 1. Time results were received.
# 2. MD5 hash of participant's IP address.
# 3. Controller name.
# 4. Item number.
# 5. Element number.
# 6. Type.
# 7. Group.
# 8. Sentence (or sentence MD5).
1566402420,08ba8739ae6eece5f003793743d66653,MultiSlider,73,0,EveryNot.None.AllBias,22,The unsuccessful broker has made some risky investments in the stock market. He nervously stared at the monitor%2C because his house may be foreclosed unless all of his investments work out.
1566402420,08ba8739ae6eece5f003793743d66653,MultiSlider,73,0,EveryNot.None.AllBias,22,How likely are the following situations?
# The lines below this comment are in groups of 2.
# The formats of the lines in each of these groups are as follows:
#
# Line 1:
#     Col. 1: Time results were received.
#     Col. 2: MD5 hash of participant's IP address.
#     Col. 3: Controller name.
#     Col. 4: Item number.
#     Col. 5: Element number.
#     Col. 6: Type.
#     Col. 7: Group.
#     Col. 8: html1.
#     Col. 9: startValue.
#     Col. 10: endValue.
#     Col. 11: value.
# Line 2:
#     Col. 1: Time results were received.
#     Col. 2: MD5 hash of participant's IP address.
#     Col. 3: Controller name.
#     Col. 4: Item number.
#     Col. 5: Element number.
#     Col. 6: Type.
#     Col. 7: Group.
#     Col. 8: html2.
#     Col. 9: startValue.
#     Col. 10: endValue.
#     Col. 11: value.
1566402420,08ba8739ae6eece5f003793743d66653,MultiSlider,73,0,EveryNot.None.AllBias,22,<b> All </b> of the investments paid off,0.00,100.00,39.17
1566402420,08ba8739ae6eece5f003793743d66653,MultiSlider,73,0,EveryNot.None.AllBias,22,<b> None </b> of the investments paid off,0.00,100.00,28.83
# The lines below this comment are in groups of 2.
# The formats of the lines in each of these groups are as follows:
#
# Line 1:
#     Col. 1: Time results were received.
#     Col. 2: MD5 hash of participant's IP address.
#     Col. 3: Controller name.
#     Col. 4: Item number.
#     Col. 5: Element number.
#     Col. 6: Type.
#     Col. 7: Group.
#     Col. 8: html.
#     Col. 9: startValue.
#     Col. 10: endValue.
#     Col. 11: value.
# Line 2:
#     Col. 1: Time results were received.
#     Col. 2: MD5 hash of participant's IP address.
#     Col. 3: Controller name.
#     Col. 4: Item number.
#     Col. 5: Element number.
#     Col. 6: Type.
#     Col. 7: Group.
#     Col. 8: Sentence (or sentence MD5).
1566402420,08ba8739ae6eece5f003793743d66653,MultiSlider,73,0,EveryNot.None.AllBias,22,<b> Some but not all </b> of the investments paid off,0.00,100.00,50.00
1566402420,08ba8739ae6eece5f003793743d66653,MultiSlider,23,0,EveryNot.All.NoneBias,5,Paula is a dedicated store assistant. A week ago%2C five boxes of new products had arrived at the store. Her manager asked if she had begun opening the boxes.
# The lines below this comment are in groups of 2.
# The formats of the lines in each of these groups are as follows:
#
# Line 1:
#     Col. 1: Time results were received.
#     Col. 2: MD5 hash of participant's IP address.
#     Col. 3: Controller name.
#     Col. 4: Item number.
#     Col. 5: Element number.
#     Col. 6: Type.
#     Col. 7: Group.
#     Col. 8: Sentence (or sentence MD5).
# Line 2:
#     Col. 1: Time results were received.
#     Col. 2: MD5 hash of participant's IP address.
#     Col. 3: Controller name.
#     Col. 4: Item number.
#     Col. 5: Element number.
#     Col. 6: Type.
#     Col. 7: Group.
#     Col. 8: html1.
#     Col. 9: startValue.
#     Col. 10: endValue.
#     Col. 11: value.
1566402420,08ba8739ae6eece5f003793743d66653,MultiSlider,23,0,EveryNot.All.NoneBias,5,How likely are the following situations?
1566402420,08ba8739ae6eece5f003793743d66653,MultiSlider,23,0,EveryNot.All.NoneBias,5,<b> Some but not all </b> of the boxes have been opened,0.00,100.00,87.50
# The lines below this comment are in groups of 2.
# The formats of the lines in each of these groups are as follows:
#
# Line 1:
#     Col. 1: Time results were received.
#     Col. 2: MD5 hash of participant's IP address.
#     Col. 3: Controller name.
#     Col. 4: Item number.
#     Col. 5: Element number.
#     Col. 6: Type.
#     Col. 7: Group.
#     Col. 8: html2.
#     Col. 9: startValue.
#     Col. 10: endValue.
#     Col. 11: value.
# Line 2:
#     Col. 1: Time results were received.
#     Col. 2: MD5 hash of participant's IP address.
#     Col. 3: Controller name.
#     Col. 4: Item number.
#     Col. 5: Element number.
#     Col. 6: Type.
#     Col. 7: Group.
#     Col. 8: html.
#     Col. 9: startValue.
#     Col. 10: endValue.
#     Col. 11: value.
1566402420,08ba8739ae6eece5f003793743d66653,MultiSlider,23,0,EveryNot.All.NoneBias,5,<b> All </b> of the boxes have been opened,0.00,100.00,71.17
1566402420,08ba8739ae6eece5f003793743d66653,MultiSlider,23,0,EveryNot.All.NoneBias,5,<b> None </b> of the boxes have been opened,0.00,100.00,50.00
# Columns below this comment are as follows:
# 1. Time results were received.
# 2. MD5 hash of participant's IP address.
# 3. Controller name.
# 4. Item number.
# 5. Element number.
# 6. Type.
# 7. Group.
# 8. Sentence (or sentence MD5).
1566402420,08ba8739ae6eece5f003793743d66653,MultiSlider,60,0,EveryNot.None.HowManyBias,18,Paul lives on a sheep farm his parents bought for him%2C but plays video games all day. His parents called him to remind him that his living situation is dependent on the number of sheep he sells.
1566402420,08ba8739ae6eece5f003793743d66653,MultiSlider,60,0,EveryNot.None.HowManyBias,18,How likely are the following situations?
# Columns below this comment are as follows:
# 1. Time results were received.
# 2. MD5 hash of participant's IP address.
# 3. Controller name.
# 4. Item number.
# 5. Element number.
# 6. Type.
# 7. Group.
# 8. html1.
# 9. startValue.
# 10. endValue.
# 11. value.
1566402420,08ba8739ae6eece5f003793743d66653,MultiSlider,60,0,EveryNot.None.HowManyBias,18,<b> None </b> of the sheep will be sold,0.00,100.00,5.83
1566402420,08ba8739ae6eece5f003793743d66653,MultiSlider,60,0,EveryNot.None.HowManyBias,18,<b> None </b> of the sheep will be sold,0.00,100.00,51.17
1566402420,08ba8739ae6eece5f003793743d66653,MultiSlider,60,0,EveryNot.None.HowManyBias,18,<b> None </b> of the sheep will be sold,0.00,100.00,28.17
# The lines below this comment are in groups of 2.
# The formats of the lines in each of these groups are as follows:
#
# Line 1:
#     Col. 1: Time results were received.
#     Col. 2: MD5 hash of participant's IP address.
#     Col. 3: Controller name.
#     Col. 4: Item number.
#     Col. 5: Element number.
#     Col. 6: Type.
#     Col. 7: Group.
#     Col. 8: html2.
#     Col. 9: startValue.
#     Col. 10: endValue.
#     Col. 11: value.
# Line 2:
#     Col. 1: Time results were received.
#     Col. 2: MD5 hash of participant's IP address.
#     Col. 3: Controller name.
#     Col. 4: Item number.
#     Col. 5: Element number.
#     Col. 6: Type.
#     Col. 7: Group.
#     Col. 8: html.
#     Col. 9: startValue.
#     Col. 10: endValue.
#     Col. 11: value.
1566402420,08ba8739ae6eece5f003793743d66653,MultiSlider,60,0,EveryNot.None.HowManyBias,18,<b> Some but not all </b> of the sheep will be sold,0.00,100.00,69.50
1566402420,08ba8739ae6eece5f003793743d66653,MultiSlider,60,0,EveryNot.None.HowManyBias,18,<b> All </b> of the sheep will be sold,0.00,100.00,19.17
# Columns below this comment are as follows:
# 1. Time results were received.
# 2. MD5 hash of participant's IP address.
# 3. Controller name.
# 4. Item number.
# 5. Element number.
# 6. Type.
# 7. Group.
# 8. Sentence (or sentence MD5).
1566402420,08ba8739ae6eece5f003793743d66653,MultiSlider,37,0,EveryNot.Some.AllBias,10,The city council organized a spelling bee competition. As the competition began%2C the parents wondered if their kids would be able to get everything correct.
1566402420,08ba8739ae6eece5f003793743d66653,MultiSlider,37,0,EveryNot.Some.AllBias,10,How likely are the following situations?
# The lines below this comment are in groups of 2.
# The formats of the lines in each of these groups are as follows:
#
# Line 1:
#     Col. 1: Time results were received.
#     Col. 2: MD5 hash of participant's IP address.
#     Col. 3: Controller name.
#     Col. 4: Item number.
#     Col. 5: Element number.
#     Col. 6: Type.
#     Col. 7: Group.
#     Col. 8: html1.
#     Col. 9: startValue.
#     Col. 10: endValue.
#     Col. 11: value.
# Line 2:
#     Col. 1: Time results were received.
#     Col. 2: MD5 hash of participant's IP address.
#     Col. 3: Controller name.
#     Col. 4: Item number.
#     Col. 5: Element number.
#     Col. 6: Type.
#     Col. 7: Group.
#     Col. 8: html2.
#     Col. 9: startValue.
#     Col. 10: endValue.
#     Col. 11: value.
1566402420,08ba8739ae6eece5f003793743d66653,MultiSlider,37,0,EveryNot.Some.AllBias,10,The kids answered <b> all of </b>the questions correctly,0.00,100.00,66.17
1566402420,08ba8739ae6eece5f003793743d66653,MultiSlider,37,0,EveryNot.Some.AllBias,10,The kids didn't answer <b> any of </b>the questions correctly,0.00,100.00,30.83
# The lines below this comment are in groups of 2.
# The formats of the lines in each of these groups are as follows:
#
# Line 1:
#     Col. 1: Time results were received.
#     Col. 2: MD5 hash of participant's IP address.
#     Col. 3: Controller name.
#     Col. 4: Item number.
#     Col. 5: Element number.
#     Col. 6: Type.
#     Col. 7: Group.
#     Col. 8: html.
#     Col. 9: startValue.
#     Col. 10: endValue.
#     Col. 11: value.
# Line 2:
#     Col. 1: Time results were received.
#     Col. 2: MD5 hash of participant's IP address.
#     Col. 3: Controller name.
#     Col. 4: Item number.
#     Col. 5: Element number.
#     Col. 6: Type.
#     Col. 7: Group.
#     Col. 8: Sentence (or sentence MD5).
1566402420,08ba8739ae6eece5f003793743d66653,MultiSlider,37,0,EveryNot.Some.AllBias,10,The kids answered <b> some but not all of </b>the questions correctly,0.00,100.00,69.50
1566402420,08ba8739ae6eece5f003793743d66653,MultiSlider,51,0,EveryNot.Some.HowManyBias,15,Barney has been submitting recipes to a famous cooking website for some time now. His partner asked how successful his submissions had been.
# The lines below this comment are in groups of 2.
# The formats of the lines in each of these groups are as follows:
#
# Line 1:
#     Col. 1: Time results were received.
#     Col. 2: MD5 hash of participant's IP address.
#     Col. 3: Controller name.
#     Col. 4: Item number.
#     Col. 5: Element number.
#     Col. 6: Type.
#     Col. 7: Group.
#     Col. 8: Sentence (or sentence MD5).
# Line 2:
#     Col. 1: Time results were received.
#     Col. 2: MD5 hash of participant's IP address.
#     Col. 3: Controller name.
#     Col. 4: Item number.
#     Col. 5: Element number.
#     Col. 6: Type.
#     Col. 7: Group.
#     Col. 8: html1.
#     Col. 9: startValue.
#     Col. 10: endValue.
#     Col. 11: value.
1566402420,08ba8739ae6eece5f003793743d66653,MultiSlider,51,0,EveryNot.Some.HowManyBias,15,How likely are the following situations?
1566402420,08ba8739ae6eece5f003793743d66653,MultiSlider,51,0,EveryNot.Some.HowManyBias,15,<b> None </b> of Barney's submissions have been published,0.00,100.00,24.83
# The lines below this comment are in groups of 2.
# The formats of the lines in each of these groups are as follows:
#
# Line 1:
#     Col. 1: Time results were received.
#     Col. 2: MD5 hash of participant's IP address.
#     Col. 3: Controller name.
#     Col. 4: Item number.
#     Col. 5: Element number.
#     Col. 6: Type.
#     Col. 7: Group.
#     Col. 8: html.
#     Col. 9: startValue.
#     Col. 10: endValue.
#     Col. 11: value.
# Line 2:
#     Col. 1: Time results were received.
#     Col. 2: MD5 hash of participant's IP address.
#     Col. 3: Controller name.
#     Col. 4: Item number.
#     Col. 5: Element number.
#     Col. 6: Type.
#     Col. 7: Group.
#     Col. 8: Sentence (or sentence MD5).
1566402420,08ba8739ae6eece5f003793743d66653,MultiSlider,51,0,EveryNot.Some.HowManyBias,15,<b> All </b> of Barney's submissions have been published,0.00,100.00,25.50
1566402420,08ba8739ae6eece5f003793743d66653,MultiSlider,14,0,EveryNot.All.NoneBias,2,Erin is a vet. During her last trip%2C she encountered six deer in critical condition%2C and she did the best she could to save even just one life.
# The lines below this comment are in groups of 2.
# The formats of the lines in each of these groups are as follows:
#
# Line 1:
#     Col. 1: Time results were received.
#     Col. 2: MD5 hash of participant's IP address.
#     Col. 3: Controller name.
#     Col. 4: Item number.
#     Col. 5: Element number.
#     Col. 6: Type.
#     Col. 7: Group.
#     Col. 8: Sentence (or sentence MD5).
# Line 2:
#     Col. 1: Time results were received.
#     Col. 2: MD5 hash of participant's IP address.
#     Col. 3: Controller name.
#     Col. 4: Item number.
#     Col. 5: Element number.
#     Col. 6: Type.
#     Col. 7: Group.
#     Col. 8: html1.
#     Col. 9: startValue.
#     Col. 10: endValue.
#     Col. 11: value.
1566402420,08ba8739ae6eece5f003793743d66653,MultiSlider,14,0,EveryNot.All.NoneBias,2,How likely are the following situations?
1566402420,08ba8739ae6eece5f003793743d66653,MultiSlider,14,0,EveryNot.All.NoneBias,2,<b> Some but not all </b> of the six deer survived,0.00,100.00,64.50
# The lines below this comment are in groups of 2.
# The formats of the lines in each of these groups are as follows:
#
# Line 1:
#     Col. 1: Time results were received.
#     Col. 2: MD5 hash of participant's IP address.
#     Col. 3: Controller name.
#     Col. 4: Item number.
#     Col. 5: Element number.
#     Col. 6: Type.
#     Col. 7: Group.
#     Col. 8: html2.
#     Col. 9: startValue.
#     Col. 10: endValue.
#     Col. 11: value.
# Line 2:
#     Col. 1: Time results were received.
#     Col. 2: MD5 hash of participant's IP address.
#     Col. 3: Controller name.
#     Col. 4: Item number.
#     Col. 5: Element number.
#     Col. 6: Type.
#     Col. 7: Group.
#     Col. 8: html.
#     Col. 9: startValue.
#     Col. 10: endValue.
#     Col. 11: value.
1566402420,08ba8739ae6eece5f003793743d66653,MultiSlider,14,0,EveryNot.All.NoneBias,2,<b> All </b> of the six deer survived,0.00,100.00,38.17
1566402420,08ba8739ae6eece5f003793743d66653,MultiSlider,14,0,EveryNot.All.NoneBias,2,<b> None </b> of the six deer survived,0.00,100.00,35.83
# Columns below this comment are as follows:
# 1. Time results were received.
# 2. MD5 hash of participant's IP address.
# 3. Controller name.
# 4. Item number.
# 5. Element number.
# 6. Type.
# 7. Group.
# 8. Sentence (or sentence MD5).
1566402420,08ba8739ae6eece5f003793743d66653,MultiSlider,69,0,EveryNot.None.HowManyBias,21,Julia is a straight-A student. This semester%2C she enrolled for the easiest classes. After the semester%2C her mother phoned her to find out how her daughter had performed this semester.
1566402420,08ba8739ae6eece5f003793743d66653,MultiSlider,69,0,EveryNot.None.HowManyBias,21,How likely are the following situations?
# The lines below this comment are in groups of 2.
# The formats of the lines in each of these groups are as follows:
#
# Line 1:
#     Col. 1: Time results were received.
#     Col. 2: MD5 hash of participant's IP address.
#     Col. 3: Controller name.
#     Col. 4: Item number.
#     Col. 5: Element number.
#     Col. 6: Type.
#     Col. 7: Group.
#     Col. 8: html1.
#     Col. 9: startValue.
#     Col. 10: endValue.
#     Col. 11: value.
# Line 2:
#     Col. 1: Time results were received.
#     Col. 2: MD5 hash of participant's IP address.
#     Col. 3: Controller name.
#     Col. 4: Item number.
#     Col. 5: Element number.
#     Col. 6: Type.
#     Col. 7: Group.
#     Col. 8: html2.
#     Col. 9: startValue.
#     Col. 10: endValue.
#     Col. 11: value.
1566402420,08ba8739ae6eece5f003793743d66653,MultiSlider,69,0,EveryNot.None.HowManyBias,21, Julia didn't fail<b> any of </b>the classes,0.00,100.00,88.83
1566402420,08ba8739ae6eece5f003793743d66653,MultiSlider,69,0,EveryNot.None.HowManyBias,21, Julia failed<b> some but not all of </b>the classes,0.00,100.00,7.83
# The lines below this comment are in groups of 2.
# The formats of the lines in each of these groups are as follows:
#
# Line 1:
#     Col. 1: Time results were received.
#     Col. 2: MD5 hash of participant's IP address.
#     Col. 3: Controller name.
#     Col. 4: Item number.
#     Col. 5: Element number.
#     Col. 6: Type.
#     Col. 7: Group.
#     Col. 8: html.
#     Col. 9: startValue.
#     Col. 10: endValue.
#     Col. 11: value.
# Line 2:
#     Col. 1: Time results were received.
#     Col. 2: MD5 hash of participant's IP address.
#     Col. 3: Controller name.
#     Col. 4: Item number.
#     Col. 5: Element number.
#     Col. 6: Type.
#     Col. 7: Group.
#     Col. 8: Sentence (or sentence MD5).
1566402420,08ba8739ae6eece5f003793743d66653,MultiSlider,69,0,EveryNot.None.HowManyBias,21, Julia failed<b> all of </b>the classes,0.00,100.00,3.50
1566402420,08ba8739ae6eece5f003793743d66653,MultiSlider,64,0,EveryNot.None.AllBias,19,Bill is an average runner who tried to break five Guinness records of running. At the day of the challenge%2C he swore that he was going to get all the records under his belt.
# The lines below this comment are in groups of 2.
# The formats of the lines in each of these groups are as follows:
#
# Line 1:
#     Col. 1: Time results were received.
#     Col. 2: MD5 hash of participant's IP address.
#     Col. 3: Controller name.
#     Col. 4: Item number.
#     Col. 5: Element number.
#     Col. 6: Type.
#     Col. 7: Group.
#     Col. 8: Sentence (or sentence MD5).
# Line 2:
#     Col. 1: Time results were received.
#     Col. 2: MD5 hash of participant's IP address.
#     Col. 3: Controller name.
#     Col. 4: Item number.
#     Col. 5: Element number.
#     Col. 6: Type.
#     Col. 7: Group.
#     Col. 8: html1.
#     Col. 9: startValue.
#     Col. 10: endValue.
#     Col. 11: value.
1566402420,08ba8739ae6eece5f003793743d66653,MultiSlider,64,0,EveryNot.None.AllBias,19,How likely are the following situations?
1566402420,08ba8739ae6eece5f003793743d66653,MultiSlider,64,0,EveryNot.None.AllBias,19,<b> All </b> of the records were broken in the end,0.00,100.00,57.83
# The lines below this comment are in groups of 2.
# The formats of the lines in each of these groups are as follows:
#
# Line 1:
#     Col. 1: Time results were received.
#     Col. 2: MD5 hash of participant's IP address.
#     Col. 3: Controller name.
#     Col. 4: Item number.
#     Col. 5: Element number.
#     Col. 6: Type.
#     Col. 7: Group.
#     Col. 8: html2.
#     Col. 9: startValue.
#     Col. 10: endValue.
#     Col. 11: value.
# Line 2:
#     Col. 1: Time results were received.
#     Col. 2: MD5 hash of participant's IP address.
#     Col. 3: Controller name.
#     Col. 4: Item number.
#     Col. 5: Element number.
#     Col. 6: Type.
#     Col. 7: Group.
#     Col. 8: html.
#     Col. 9: startValue.
#     Col. 10: endValue.
#     Col. 11: value.
1566402420,08ba8739ae6eece5f003793743d66653,MultiSlider,64,0,EveryNot.None.AllBias,19,<b> None </b> of the records were broken in the end,0.00,100.00,26.50
1566402420,08ba8739ae6eece5f003793743d66653,MultiSlider,64,0,EveryNot.None.AllBias,19,<b> Some but not all </b> of the records were broken in the end,0.00,100.00,73.50
# Columns below this comment are as follows:
# 1. Time results were received.
# 2. MD5 hash of participant's IP address.
# 3. Controller name.
# 4. Item number.
# 5. Element number.
# 6. Type.
# 7. Group.
# 8. Sentence (or sentence MD5).
1566402420,08ba8739ae6eece5f003793743d66653,MultiSlider,28,0,EveryNot.All.AllBias,7,The nursery normally changes infants' diapers before they go to nap. This afternoon%2C a health inspector wanted to make sure all of the infants had been changed before nap time.
1566402420,08ba8739ae6eece5f003793743d66653,MultiSlider,28,0,EveryNot.All.AllBias,7,How likely are the following situations?
# Columns below this comment are as follows:
# 1. Time results were received.
# 2. MD5 hash of participant's IP address.
# 3. Controller name.
# 4. Item number.
# 5. Element number.
# 6. Type.
# 7. Group.
# 8. html1.
# 9. startValue.
# 10. endValue.
# 11. value.
1566402420,08ba8739ae6eece5f003793743d66653,MultiSlider,28,0,EveryNot.All.AllBias,7,<b> All </b> of the infants have been changed,0.00,100.00,69.83
1566402420,08ba8739ae6eece5f003793743d66653,MultiSlider,28,0,EveryNot.All.AllBias,7,<b> All </b> of the infants have been changed,0.00,100.00,86.50
# The lines below this comment are in groups of 2.
# The formats of the lines in each of these groups are as follows:
#
# Line 1:
#     Col. 1: Time results were received.
#     Col. 2: MD5 hash of participant's IP address.
#     Col. 3: Controller name.
#     Col. 4: Item number.
#     Col. 5: Element number.
#     Col. 6: Type.
#     Col. 7: Group.
#     Col. 8: html2.
#     Col. 9: startValue.
#     Col. 10: endValue.
#     Col. 11: value.
# Line 2:
#     Col. 1: Time results were received.
#     Col. 2: MD5 hash of participant's IP address.
#     Col. 3: Controller name.
#     Col. 4: Item number.
#     Col. 5: Element number.
#     Col. 6: Type.
#     Col. 7: Group.
#     Col. 8: html.
#     Col. 9: startValue.
#     Col. 10: endValue.
#     Col. 11: value.
1566402420,08ba8739ae6eece5f003793743d66653,MultiSlider,28,0,EveryNot.All.AllBias,7,<b> None </b> of the infants have been changed,0.00,100.00,1.17
1566402420,08ba8739ae6eece5f003793743d66653,MultiSlider,28,0,EveryNot.All.AllBias,7,<b> Some but not all </b> of the infants have been changed,0.00,100.00,57.83
# Columns below this comment are as follows:
# 1. Time results were received.
# 2. MD5 hash of participant's IP address.
# 3. Controller name.
# 4. Item number.
# 5. Element number.
# 6. Type.
# 7. Group.
# 8. Sentence (or sentence MD5).
1566402420,08ba8739ae6eece5f003793743d66653,MultiSlider,41,0,EveryNot.Some.NoneBias,11,The local community organized a flea market last weekend. The sellers  all hoped that they could close even just one sale they dealt with.
1566402420,08ba8739ae6eece5f003793743d66653,MultiSlider,41,0,EveryNot.Some.NoneBias,11,How likely are the following situations?
# The lines below this comment are in groups of 2.
# The formats of the lines in each of these groups are as follows:
#
# Line 1:
#     Col. 1: Time results were received.
#     Col. 2: MD5 hash of participant's IP address.
#     Col. 3: Controller name.
#     Col. 4: Item number.
#     Col. 5: Element number.
#     Col. 6: Type.
#     Col. 7: Group.
#     Col. 8: html1.
#     Col. 9: startValue.
#     Col. 10: endValue.
#     Col. 11: value.
# Line 2:
#     Col. 1: Time results were received.
#     Col. 2: MD5 hash of participant's IP address.
#     Col. 3: Controller name.
#     Col. 4: Item number.
#     Col. 5: Element number.
#     Col. 6: Type.
#     Col. 7: Group.
#     Col. 8: html2.
#     Col. 9: startValue.
#     Col. 10: endValue.
#     Col. 11: value.
1566402420,08ba8739ae6eece5f003793743d66653,MultiSlider,41,0,EveryNot.Some.NoneBias,11,<b> Some but not all </b> of the sales were closed in the end,0.00,100.00,67.50
1566402420,08ba8739ae6eece5f003793743d66653,MultiSlider,41,0,EveryNot.Some.NoneBias,11,<b> All </b> of the sales were closed in the end,0.00,100.00,58.50
# The lines below this comment are in groups of 2.
# The formats of the lines in each of these groups are as follows:
#
# Line 1:
#     Col. 1: Time results were received.
#     Col. 2: MD5 hash of participant's IP address.
#     Col. 3: Controller name.
#     Col. 4: Item number.
#     Col. 5: Element number.
#     Col. 6: Type.
#     Col. 7: Group.
#     Col. 8: html.
#     Col. 9: startValue.
#     Col. 10: endValue.
#     Col. 11: value.
# Line 2:
#     Col. 1: Time results were received.
#     Col. 2: MD5 hash of participant's IP address.
#     Col. 3: Controller name.
#     Col. 4: Item number.
#     Col. 5: Element number.
#     Col. 6: Type.
#     Col. 7: Group.
#     Col. 8: Sentence (or sentence MD5).
