#
# Results on Monday August 05 2019 15:40:37 UTC.
# USER AGENT: Mozilla/5.0 (Macintosh; Intel Mac OS X 10_14_5) AppleWebKit/605.1.15 (KHTML, like Gecko) Version/12.1.1 Safari/605.1.15
# Design number was non-random = 1
#
# Columns below this comment are as follows:
# 1. Time results were received.
# 2. MD5 hash of participant's IP address.
# 3. Controller name.
# 4. Item number.
# 5. Element number.
# 6. Type.
# 7. Group.
# 8. Field name.
# 9. Field value.
1565019637,b564b8af35c4b071a5e0f51fc4f54821,Form,7,0,consent,NULL,consent,yes
1565019637,b564b8af35c4b071a5e0f51fc4f54821,Form,7,0,consent,NULL,_REACTION_TIME_,2325
1565019637,b564b8af35c4b071a5e0f51fc4f54821,Form,1,0,intro,NULL,age,987
1565019637,b564b8af35c4b071a5e0f51fc4f54821,Form,1,0,intro,NULL,natlang,iou
1565019637,b564b8af35c4b071a5e0f51fc4f54821,Form,1,0,intro,NULL,otherlang,iou
1565019637,b564b8af35c4b071a5e0f51fc4f54821,Form,1,0,intro,NULL,Prolific,oil
1565019637,b564b8af35c4b071a5e0f51fc4f54821,Form,1,0,intro,NULL,gender,other
1565019637,b564b8af35c4b071a5e0f51fc4f54821,Form,1,0,intro,NULL,_REACTION_TIME_,3376
1565019637,b564b8af35c4b071a5e0f51fc4f54821,Form,2,0,intro1,NULL,_REACTION_TIME_,690
1565019637,b564b8af35c4b071a5e0f51fc4f54821,Form,3,0,intro2,NULL,_REACTION_TIME_,918
1565019637,b564b8af35c4b071a5e0f51fc4f54821,Form,4,0,intro3,NULL,_REACTION_TIME_,1028
# Columns below this comment are as follows:
# 1. Time results were received.
# 2. MD5 hash of participant's IP address.
# 3. Controller name.
# 4. Item number.
# 5. Element number.
# 6. Type.
# 7. Group.
# 8. html.
# 9. startValue.
# 10. endValue.
# 11. value.
# 12. _REACTION_TIME_.
1565019637,b564b8af35c4b071a5e0f51fc4f54821,MultiSlider,69,0,EveryNot.None.HowManyBias,21,<b>How many</b> of the classes did Julia fail?,0.00,100.00,50.00,684.00
1565019637,b564b8af35c4b071a5e0f51fc4f54821,MultiSlider,59,0,EveryNot.None.NoneBias,17,<b>Have all</b> of the cases been solved?,0.00,100.00,50.00,468.00
1565019637,b564b8af35c4b071a5e0f51fc4f54821,MultiSlider,73,0,EveryNot.None.AllBias,22,<b>Did any</b> of the investment pay off?,0.00,100.00,50.00,59.00
1565019637,b564b8af35c4b071a5e0f51fc4f54821,MultiSlider,68,0,EveryNot.None.NoneBias,20,Did she win<b> all of </b> the medals?,0.00,100.00,50.00,286.00
1565019637,b564b8af35c4b071a5e0f51fc4f54821,MultiSlider,41,0,EveryNot.Some.NoneBias,11,<b>Were all</b> of the sales closed in the end?,0.00,100.00,50.00,36.00
1565019637,b564b8af35c4b071a5e0f51fc4f54821,MultiSlider,28,0,EveryNot.All.AllBias,7,<b>Have any</b> of the infants been changed?,0.00,100.00,50.00,676.00
1565019637,b564b8af35c4b071a5e0f51fc4f54821,MultiSlider,50,0,EveryNot.Some.NoneBias,14,Has Roy been invited to<b> all of </b>the Major League Gaming tournaments?,0.00,100.00,50.00,1919.00
1565019637,b564b8af35c4b071a5e0f51fc4f54821,MultiSlider,10,0,EveryNot.All.AllBias,1,<b>Did any</b> of the kindergartners get on the bus?,0.00,100.00,50.00,1312.00
1565019637,b564b8af35c4b071a5e0f51fc4f54821,MultiSlider,42,0,EveryNot.Some.HowManyBias,12,<b>How many</b> of the booths have Sue and Marc visited so far?,0.00,100.00,50.00,541.00
1565019637,b564b8af35c4b071a5e0f51fc4f54821,MultiSlider,19,0,EveryNot.All.AllBias,4,<b>Have any</b> of the wedding invitations been written?,0.00,100.00,50.00,86.00
1565019637,b564b8af35c4b071a5e0f51fc4f54821,MultiSlider,15,0,EveryNot.All.HowManyBias,3,<b>How many</b> of the student essays were graded?,0.00,100.00,50.00,325.00
1565019637,b564b8af35c4b071a5e0f51fc4f54821,MultiSlider,78,0,EveryNot.None.HowManyBias,24,<b>How many</b> of the appointments were cancelled?,0.00,100.00,50.00,107.00
1565019637,b564b8af35c4b071a5e0f51fc4f54821,MultiSlider,64,0,EveryNot.None.AllBias,19,<b>Were any</b> of the records broken in the end?,0.00,100.00,50.00,249.00
1565019637,b564b8af35c4b071a5e0f51fc4f54821,MultiSlider,51,0,EveryNot.Some.HowManyBias,15,<b>How many</b> of Barney's submissions have been published?,0.00,100.00,50.00,252.00
1565019637,b564b8af35c4b071a5e0f51fc4f54821,MultiSlider,24,0,EveryNot.All.HowManyBias,6,<b>How many</b> of the new songs have been demoed?,0.00,100.00,50.00,295.00
1565019637,b564b8af35c4b071a5e0f51fc4f54821,MultiSlider,33,0,EveryNot.Some.HowManyBias,9,<b>How many</b> of the students passed the exam?,0.00,100.00,50.00,339.00
1565019637,b564b8af35c4b071a5e0f51fc4f54821,MultiSlider,55,0,EveryNot.Some.AllBias,16,Will<b> any of </b>of the employees be fired?,0.00,100.00,50.00,222.00
1565019637,b564b8af35c4b071a5e0f51fc4f54821,MultiSlider,37,0,EveryNot.Some.AllBias,10,Did the kids answer <b> any of </b>the questions correctly?,0.00,100.00,50.00,49.00
1565019637,b564b8af35c4b071a5e0f51fc4f54821,MultiSlider,60,0,EveryNot.None.HowManyBias,18,<b>How many</b> of the sheep have been sold?,0.00,100.00,50.00,160.00
1565019637,b564b8af35c4b071a5e0f51fc4f54821,MultiSlider,23,0,EveryNot.All.NoneBias,5,<b>Have all</b> of the boxes been opened?,0.00,100.00,50.00,571.00
1565019637,b564b8af35c4b071a5e0f51fc4f54821,MultiSlider,14,0,EveryNot.All.NoneBias,2,<b>Did all</b> of the six deer survive?,0.00,100.00,50.00,145.00
1565019637,b564b8af35c4b071a5e0f51fc4f54821,MultiSlider,32,0,EveryNot.All.NoneBias,8,<b>Were all</b> of the guests dressed properly?,0.00,100.00,50.00,327.00
1565019637,b564b8af35c4b071a5e0f51fc4f54821,MultiSlider,77,0,EveryNot.None.NoneBias,23,<b>Were all</b> of the operations successful?,0.00,100.00,50.00,909.00
1565019637,b564b8af35c4b071a5e0f51fc4f54821,MultiSlider,46,0,EveryNot.Some.AllBias,13,<b>Have any</b> of the books been cataloged?,0.00,100.00,50.00,1377.00
# Columns below this comment are as follows:
# 1. Time results were received.
# 2. MD5 hash of participant's IP address.
# 3. Controller name.
# 4. Item number.
# 5. Element number.
# 6. Type.
# 7. Group.
# 8. Field name.
# 9. Field value.
1565019637,b564b8af35c4b071a5e0f51fc4f54821,Form,8,0,end_experiment,NULL,_REACTION_TIME_,1695
#
# Results on Monday August 05 2019 16:45:19 UTC.
# USER AGENT: Mozilla/5.0 (Windows NT 10.0; Win64; x64) AppleWebKit/537.36 (KHTML, like Gecko) Chrome/75.0.3770.142 Safari/537.36
# Design number was non-random = 2
#
# Columns below this comment are as follows:
# 1. Time results were received.
# 2. MD5 hash of participant's IP address.
# 3. Controller name.
# 4. Item number.
# 5. Element number.
# 6. Type.
# 7. Group.
# 8. Field name.
# 9. Field value.
1565023519,5bdc0c642bf6d60eaf9ed00db27ce92d,Form,7,0,consent,NULL,consent,yes
1565023519,5bdc0c642bf6d60eaf9ed00db27ce92d,Form,7,0,consent,NULL,_REACTION_TIME_,6600
1565023519,5bdc0c642bf6d60eaf9ed00db27ce92d,Form,1,0,intro,NULL,age,1
1565023519,5bdc0c642bf6d60eaf9ed00db27ce92d,Form,1,0,intro,NULL,natlang,l
1565023519,5bdc0c642bf6d60eaf9ed00db27ce92d,Form,1,0,intro,NULL,otherlang,l
1565023519,5bdc0c642bf6d60eaf9ed00db27ce92d,Form,1,0,intro,NULL,Prolific,l
1565023519,5bdc0c642bf6d60eaf9ed00db27ce92d,Form,1,0,intro,NULL,gender,female
1565023519,5bdc0c642bf6d60eaf9ed00db27ce92d,Form,1,0,intro,NULL,_REACTION_TIME_,3096
1565023519,5bdc0c642bf6d60eaf9ed00db27ce92d,Form,2,0,intro1,NULL,_REACTION_TIME_,613
1565023519,5bdc0c642bf6d60eaf9ed00db27ce92d,Form,3,0,intro2,NULL,_REACTION_TIME_,522
1565023519,5bdc0c642bf6d60eaf9ed00db27ce92d,Form,4,0,intro3,NULL,_REACTION_TIME_,554
# Columns below this comment are as follows:
# 1. Time results were received.
# 2. MD5 hash of participant's IP address.
# 3. Controller name.
# 4. Item number.
# 5. Element number.
# 6. Type.
# 7. Group.
# 8. Sentence (or sentence MD5).
1565023519,5bdc0c642bf6d60eaf9ed00db27ce92d,MultiSlider,57,0,EveryNot.None.HowManyBias,17,Jack is an incompetent homicide detective trying to solve three recent murders. His boss tells him that he will get a bonus depending on his performance.
1565023519,5bdc0c642bf6d60eaf9ed00db27ce92d,MultiSlider,57,0,EveryNot.None.HowManyBias,17,How relevant are the following questions for the story?
# Columns below this comment are as follows:
# 1. Time results were received.
# 2. MD5 hash of participant's IP address.
# 3. Controller name.
# 4. Item number.
# 5. Element number.
# 6. Type.
# 7. Group.
# 8. html.
# 9. startValue.
# 10. endValue.
# 11. value.
# 12. _REACTION_TIME_.
1565023519,5bdc0c642bf6d60eaf9ed00db27ce92d,MultiSlider,57,0,EveryNot.None.HowManyBias,17,<b>Have all</b> of the cases been solved?,0.00,100.00,50.00,4583.00
1565023519,5bdc0c642bf6d60eaf9ed00db27ce92d,MultiSlider,12,0,EveryNot.All.HowManyBias,2,<b>Did all</b> of the six deer survive?,0.00,100.00,50.00,1548.00
1565023519,5bdc0c642bf6d60eaf9ed00db27ce92d,MultiSlider,79,0,EveryNot.None.AllBias,24,<b>How many</b> of the appointments were cancelled?,0.00,100.00,50.00,591.00
1565023519,5bdc0c642bf6d60eaf9ed00db27ce92d,MultiSlider,47,0,EveryNot.Some.NoneBias,13,<b>Have any</b> of the books been cataloged?,0.00,100.00,50.00,465.00
1565023519,5bdc0c642bf6d60eaf9ed00db27ce92d,MultiSlider,11,0,EveryNot.All.NoneBias,1,<b>Did any</b> of the kindergartners get on the bus?,0.00,100.00,50.00,281.00
1565023519,5bdc0c642bf6d60eaf9ed00db27ce92d,MultiSlider,70,0,EveryNot.None.AllBias,21,<b>How many</b> of the classes did Julia fail?,0.00,100.00,50.00,225.00
1565023519,5bdc0c642bf6d60eaf9ed00db27ce92d,MultiSlider,29,0,EveryNot.All.NoneBias,7,<b>Have any</b> of the infants been changed?,0.00,100.00,50.00,249.00
1565023519,5bdc0c642bf6d60eaf9ed00db27ce92d,MultiSlider,30,0,EveryNot.All.HowManyBias,8,<b>Were all</b> of the guests dressed properly?,0.00,100.00,50.00,245.00
1565023519,5bdc0c642bf6d60eaf9ed00db27ce92d,MultiSlider,39,0,EveryNot.Some.HowManyBias,11,<b>Were all</b> of the sales closed in the end?,0.00,100.00,50.00,153.00
1565023519,5bdc0c642bf6d60eaf9ed00db27ce92d,MultiSlider,74,0,EveryNot.None.NoneBias,22,<b>Did any</b> of the investment pay off?,0.00,100.00,50.00,218.00
1565023519,5bdc0c642bf6d60eaf9ed00db27ce92d,MultiSlider,65,0,EveryNot.None.NoneBias,19,<b>Were any</b> of the records broken in the end?,0.00,100.00,50.00,205.00
1565023519,5bdc0c642bf6d60eaf9ed00db27ce92d,MultiSlider,43,0,EveryNot.Some.AllBias,12,<b>How many</b> of the booths have Sue and Marc visited so far?,0.00,100.00,50.00,251.00
1565023519,5bdc0c642bf6d60eaf9ed00db27ce92d,MultiSlider,75,0,EveryNot.None.HowManyBias,23,<b>Were all</b> of the operations successful?,0.00,100.00,50.00,219.00
1565023519,5bdc0c642bf6d60eaf9ed00db27ce92d,MultiSlider,25,0,EveryNot.All.AllBias,6,<b>How many</b> of the new songs have been demoed?,0.00,100.00,50.00,483.00
1565023519,5bdc0c642bf6d60eaf9ed00db27ce92d,MultiSlider,16,0,EveryNot.All.AllBias,3,<b>How many</b> of the student essays were graded?,0.00,100.00,50.00,206.00
1565023519,5bdc0c642bf6d60eaf9ed00db27ce92d,MultiSlider,34,0,EveryNot.Some.AllBias,9,<b>How many</b> of the students passed the exam?,0.00,100.00,50.00,294.00
1565023519,5bdc0c642bf6d60eaf9ed00db27ce92d,MultiSlider,38,0,EveryNot.Some.NoneBias,10,Did the kids answer <b> any of </b>the questions correctly?,0.00,100.00,50.00,163.00
1565023519,5bdc0c642bf6d60eaf9ed00db27ce92d,MultiSlider,52,0,EveryNot.Some.AllBias,15,<b>How many</b> of Barney's submissions have been published?,0.00,100.00,50.00,257.00
1565023519,5bdc0c642bf6d60eaf9ed00db27ce92d,MultiSlider,56,0,EveryNot.Some.NoneBias,16,Will<b> any of </b>of the employees be fired?,0.00,100.00,50.00,249.00
1565023519,5bdc0c642bf6d60eaf9ed00db27ce92d,MultiSlider,20,0,EveryNot.All.NoneBias,4,<b>Have any</b> of the wedding invitations been written?,0.00,100.00,50.00,198.00
1565023519,5bdc0c642bf6d60eaf9ed00db27ce92d,MultiSlider,48,0,EveryNot.Some.HowManyBias,14,Has Roy been invited to<b> all of </b>the Major League Gaming tournament?,0.00,100.00,0.00,1778.00
1565023519,5bdc0c642bf6d60eaf9ed00db27ce92d,MultiSlider,61,0,EveryNot.None.AllBias,18,<b>How many</b> of the sheep have been sold?,0.00,100.00,50.00,723.00
1565023519,5bdc0c642bf6d60eaf9ed00db27ce92d,MultiSlider,66,0,EveryNot.None.HowManyBias,20,Did she win<b> all of </b> the medals?,0.00,100.00,50.00,430.00
1565023519,5bdc0c642bf6d60eaf9ed00db27ce92d,MultiSlider,21,0,EveryNot.All.HowManyBias,5,<b>Have all</b> of the boxes been opened?,0.00,100.00,50.00,450.00
# Columns below this comment are as follows:
# 1. Time results were received.
# 2. MD5 hash of participant's IP address.
# 3. Controller name.
# 4. Item number.
# 5. Element number.
# 6. Type.
# 7. Group.
# 8. Field name.
# 9. Field value.
1565023519,5bdc0c642bf6d60eaf9ed00db27ce92d,Form,8,0,end_experiment,NULL,_REACTION_TIME_,4374
#
# Results on Monday August 05 2019 16:59:21 UTC.
# USER AGENT: Mozilla/5.0 (Windows NT 6.1; Win64; x64) AppleWebKit/537.36 (KHTML, like Gecko) Chrome/78.0.3872.0 Safari/537.36
# Design number was non-random = 4
#
# Columns below this comment are as follows:
# 1. Time results were received.
# 2. MD5 hash of participant's IP address.
# 3. Controller name.
# 4. Item number.
# 5. Element number.
# 6. Type.
# 7. Group.
# 8. Field name.
# 9. Field value.
1565024361,521996879b294ffadc36c8364e6299f9,Form,7,0,consent,NULL,consent,yes
1565024361,521996879b294ffadc36c8364e6299f9,Form,7,0,consent,NULL,_REACTION_TIME_,9198
1565024361,521996879b294ffadc36c8364e6299f9,Form,1,0,intro,NULL,age,27
1565024361,521996879b294ffadc36c8364e6299f9,Form,1,0,intro,NULL,natlang,English
1565024361,521996879b294ffadc36c8364e6299f9,Form,1,0,intro,NULL,otherlang,mild Spanish
1565024361,521996879b294ffadc36c8364e6299f9,Form,1,0,intro,NULL,Prolific,5c800507a1d4b900114f28c4
1565024361,521996879b294ffadc36c8364e6299f9,Form,1,0,intro,NULL,gender,male
1565024361,521996879b294ffadc36c8364e6299f9,Form,1,0,intro,NULL,_REACTION_TIME_,24933
1565024361,521996879b294ffadc36c8364e6299f9,Form,2,0,intro1,NULL,_REACTION_TIME_,7552
1565024361,521996879b294ffadc36c8364e6299f9,Form,3,0,intro2,NULL,_REACTION_TIME_,21166
1565024361,521996879b294ffadc36c8364e6299f9,Form,4,0,intro3,NULL,_REACTION_TIME_,12519
# Columns below this comment are as follows:
# 1. Time results were received.
# 2. MD5 hash of participant's IP address.
# 3. Controller name.
# 4. Item number.
# 5. Element number.
# 6. Type.
# 7. Group.
# 8. Sentence (or sentence MD5).
1565024361,521996879b294ffadc36c8364e6299f9,MultiSlider,41,0,EveryNot.Some.NoneBias,11,The local community organized a flea market last weekend. The sellers  all hoped that they could close even just one sale they dealt with.
1565024361,521996879b294ffadc36c8364e6299f9,MultiSlider,41,0,EveryNot.Some.NoneBias,11,How relevant are the following questions for the story?
# The lines below this comment are in groups of 2.
# The formats of the lines in each of these groups are as follows:
#
# Line 1:
#     Col. 1: Time results were received.
#     Col. 2: MD5 hash of participant's IP address.
#     Col. 3: Controller name.
#     Col. 4: Item number.
#     Col. 5: Element number.
#     Col. 6: Type.
#     Col. 7: Group.
#     Col. 8: html1.
#     Col. 9: startValue.
#     Col. 10: endValue.
#     Col. 11: value.
# Line 2:
#     Col. 1: Time results were received.
#     Col. 2: MD5 hash of participant's IP address.
#     Col. 3: Controller name.
#     Col. 4: Item number.
#     Col. 5: Element number.
#     Col. 6: Type.
#     Col. 7: Group.
#     Col. 8: html2.
#     Col. 9: startValue.
#     Col. 10: endValue.
#     Col. 11: value.
1565024361,521996879b294ffadc36c8364e6299f9,MultiSlider,41,0,EveryNot.Some.NoneBias,11,<b>Were any</b> of the sales closed in the end?,0.00,100.00,95.78
1565024361,521996879b294ffadc36c8364e6299f9,MultiSlider,41,0,EveryNot.Some.NoneBias,11,<b>How many</b> of the sales were closed in the end?,0.00,100.00,95.78
# The lines below this comment are in groups of 2.
# The formats of the lines in each of these groups are as follows:
#
# Line 1:
#     Col. 1: Time results were received.
#     Col. 2: MD5 hash of participant's IP address.
#     Col. 3: Controller name.
#     Col. 4: Item number.
#     Col. 5: Element number.
#     Col. 6: Type.
#     Col. 7: Group.
#     Col. 8: html.
#     Col. 9: startValue.
#     Col. 10: endValue.
#     Col. 11: value.
#     Col. 12: _REACTION_TIME_.
# Line 2:
#     Col. 1: Time results were received.
#     Col. 2: MD5 hash of participant's IP address.
#     Col. 3: Controller name.
#     Col. 4: Item number.
#     Col. 5: Element number.
#     Col. 6: Type.
#     Col. 7: Group.
#     Col. 8: Sentence (or sentence MD5).
1565024361,521996879b294ffadc36c8364e6299f9,MultiSlider,41,0,EveryNot.Some.NoneBias,11,<b>Were all</b> of the sales closed in the end?,0.00,100.00,30.78,30941.00
1565024361,521996879b294ffadc36c8364e6299f9,MultiSlider,37,0,EveryNot.Some.AllBias,10,The city council organized a spelling bee competition. As the competition began%2C the parents wondered if their kids would be able to get everything correct.
# The lines below this comment are in groups of 2.
# The formats of the lines in each of these groups are as follows:
#
# Line 1:
#     Col. 1: Time results were received.
#     Col. 2: MD5 hash of participant's IP address.
#     Col. 3: Controller name.
#     Col. 4: Item number.
#     Col. 5: Element number.
#     Col. 6: Type.
#     Col. 7: Group.
#     Col. 8: Sentence (or sentence MD5).
# Line 2:
#     Col. 1: Time results were received.
#     Col. 2: MD5 hash of participant's IP address.
#     Col. 3: Controller name.
#     Col. 4: Item number.
#     Col. 5: Element number.
#     Col. 6: Type.
#     Col. 7: Group.
#     Col. 8: html1.
#     Col. 9: startValue.
#     Col. 10: endValue.
#     Col. 11: value.
1565024361,521996879b294ffadc36c8364e6299f9,MultiSlider,37,0,EveryNot.Some.AllBias,10,How relevant are the following questions for the story?
1565024361,521996879b294ffadc36c8364e6299f9,MultiSlider,37,0,EveryNot.Some.AllBias,10,<b>How many</b> of the questions did the kids answer correctly?,0.00,100.00,13.78
# The lines below this comment are in groups of 2.
# The formats of the lines in each of these groups are as follows:
#
# Line 1:
#     Col. 1: Time results were received.
#     Col. 2: MD5 hash of participant's IP address.
#     Col. 3: Controller name.
#     Col. 4: Item number.
#     Col. 5: Element number.
#     Col. 6: Type.
#     Col. 7: Group.
#     Col. 8: html1.
#     Col. 9: startValue.
#     Col. 10: endValue.
#     Col. 11: value.
# Line 2:
#     Col. 1: Time results were received.
#     Col. 2: MD5 hash of participant's IP address.
#     Col. 3: Controller name.
#     Col. 4: Item number.
#     Col. 5: Element number.
#     Col. 6: Type.
#     Col. 7: Group.
#     Col. 8: html2.
#     Col. 9: startValue.
#     Col. 10: endValue.
#     Col. 11: value.
1565024361,521996879b294ffadc36c8364e6299f9,MultiSlider,37,0,EveryNot.Some.AllBias,10,<b>How many</b> of the questions did the kids answer correctly?,0.00,100.00,26.44
1565024361,521996879b294ffadc36c8364e6299f9,MultiSlider,37,0,EveryNot.Some.AllBias,10,Did the kids answer <b> all of </b>the questions correctly?,0.00,100.00,30.44
# The lines below this comment are in groups of 2.
# The formats of the lines in each of these groups are as follows:
#
# Line 1:
#     Col. 1: Time results were received.
#     Col. 2: MD5 hash of participant's IP address.
#     Col. 3: Controller name.
#     Col. 4: Item number.
#     Col. 5: Element number.
#     Col. 6: Type.
#     Col. 7: Group.
#     Col. 8: html.
#     Col. 9: startValue.
#     Col. 10: endValue.
#     Col. 11: value.
#     Col. 12: _REACTION_TIME_.
# Line 2:
#     Col. 1: Time results were received.
#     Col. 2: MD5 hash of participant's IP address.
#     Col. 3: Controller name.
#     Col. 4: Item number.
#     Col. 5: Element number.
#     Col. 6: Type.
#     Col. 7: Group.
#     Col. 8: Sentence (or sentence MD5).
1565024361,521996879b294ffadc36c8364e6299f9,MultiSlider,37,0,EveryNot.Some.AllBias,10,Did the kids answer <b> any of </b>the questions correctly?,0.00,100.00,93.78,24809.00
1565024361,521996879b294ffadc36c8364e6299f9,MultiSlider,14,0,EveryNot.All.NoneBias,2,Erin is a vet. During her last trip%2C she encountered six deer in critical condition%2C and she did the best she could to save even just one life.
# The lines below this comment are in groups of 2.
# The formats of the lines in each of these groups are as follows:
#
# Line 1:
#     Col. 1: Time results were received.
#     Col. 2: MD5 hash of participant's IP address.
#     Col. 3: Controller name.
#     Col. 4: Item number.
#     Col. 5: Element number.
#     Col. 6: Type.
#     Col. 7: Group.
#     Col. 8: Sentence (or sentence MD5).
# Line 2:
#     Col. 1: Time results were received.
#     Col. 2: MD5 hash of participant's IP address.
#     Col. 3: Controller name.
#     Col. 4: Item number.
#     Col. 5: Element number.
#     Col. 6: Type.
#     Col. 7: Group.
#     Col. 8: html1.
#     Col. 9: startValue.
#     Col. 10: endValue.
#     Col. 11: value.
1565024361,521996879b294ffadc36c8364e6299f9,MultiSlider,14,0,EveryNot.All.NoneBias,2,How relevant are the following questions for the story?
1565024361,521996879b294ffadc36c8364e6299f9,MultiSlider,14,0,EveryNot.All.NoneBias,2,<b>Did any</b> of the six deer survive?,0.00,100.00,90.78
# The lines below this comment are in groups of 2.
# The formats of the lines in each of these groups are as follows:
#
# Line 1:
#     Col. 1: Time results were received.
#     Col. 2: MD5 hash of participant's IP address.
#     Col. 3: Controller name.
#     Col. 4: Item number.
#     Col. 5: Element number.
#     Col. 6: Type.
#     Col. 7: Group.
#     Col. 8: html1.
#     Col. 9: startValue.
#     Col. 10: endValue.
#     Col. 11: value.
# Line 2:
#     Col. 1: Time results were received.
#     Col. 2: MD5 hash of participant's IP address.
#     Col. 3: Controller name.
#     Col. 4: Item number.
#     Col. 5: Element number.
#     Col. 6: Type.
#     Col. 7: Group.
#     Col. 8: html2.
#     Col. 9: startValue.
#     Col. 10: endValue.
#     Col. 11: value.
1565024361,521996879b294ffadc36c8364e6299f9,MultiSlider,14,0,EveryNot.All.NoneBias,2,<b>Did any</b> of the six deer survive?,0.00,100.00,99.11
1565024361,521996879b294ffadc36c8364e6299f9,MultiSlider,14,0,EveryNot.All.NoneBias,2,<b>How many</b> of the six deer survived?,0.00,100.00,75.11
# The lines below this comment are in groups of 2.
# The formats of the lines in each of these groups are as follows:
#
# Line 1:
#     Col. 1: Time results were received.
#     Col. 2: MD5 hash of participant's IP address.
#     Col. 3: Controller name.
#     Col. 4: Item number.
#     Col. 5: Element number.
#     Col. 6: Type.
#     Col. 7: Group.
#     Col. 8: html.
#     Col. 9: startValue.
#     Col. 10: endValue.
#     Col. 11: value.
#     Col. 12: _REACTION_TIME_.
# Line 2:
#     Col. 1: Time results were received.
#     Col. 2: MD5 hash of participant's IP address.
#     Col. 3: Controller name.
#     Col. 4: Item number.
#     Col. 5: Element number.
#     Col. 6: Type.
#     Col. 7: Group.
#     Col. 8: Sentence (or sentence MD5).
1565024361,521996879b294ffadc36c8364e6299f9,MultiSlider,14,0,EveryNot.All.NoneBias,2,<b>Did all</b> of the six deer survive?,0.00,100.00,50.00,20040.00
1565024361,521996879b294ffadc36c8364e6299f9,MultiSlider,68,0,EveryNot.None.NoneBias,20,Helena is a mediocre athlete who made a resolution to win three Olympic medals this year. Her coach thought that she would be honored if she could win even a single medal.
# The lines below this comment are in groups of 2.
# The formats of the lines in each of these groups are as follows:
#
# Line 1:
#     Col. 1: Time results were received.
#     Col. 2: MD5 hash of participant's IP address.
#     Col. 3: Controller name.
#     Col. 4: Item number.
#     Col. 5: Element number.
#     Col. 6: Type.
#     Col. 7: Group.
#     Col. 8: Sentence (or sentence MD5).
# Line 2:
#     Col. 1: Time results were received.
#     Col. 2: MD5 hash of participant's IP address.
#     Col. 3: Controller name.
#     Col. 4: Item number.
#     Col. 5: Element number.
#     Col. 6: Type.
#     Col. 7: Group.
#     Col. 8: html1.
#     Col. 9: startValue.
#     Col. 10: endValue.
#     Col. 11: value.
1565024361,521996879b294ffadc36c8364e6299f9,MultiSlider,68,0,EveryNot.None.NoneBias,20,How relevant are the following questions for the story?
1565024361,521996879b294ffadc36c8364e6299f9,MultiSlider,68,0,EveryNot.None.NoneBias,20,Did she win<b> any of </b>the medals?,0.00,100.00,24.44
# The lines below this comment are in groups of 2.
# The formats of the lines in each of these groups are as follows:
#
# Line 1:
#     Col. 1: Time results were received.
#     Col. 2: MD5 hash of participant's IP address.
#     Col. 3: Controller name.
#     Col. 4: Item number.
#     Col. 5: Element number.
#     Col. 6: Type.
#     Col. 7: Group.
#     Col. 8: html2.
#     Col. 9: startValue.
#     Col. 10: endValue.
#     Col. 11: value.
# Line 2:
#     Col. 1: Time results were received.
#     Col. 2: MD5 hash of participant's IP address.
#     Col. 3: Controller name.
#     Col. 4: Item number.
#     Col. 5: Element number.
#     Col. 6: Type.
#     Col. 7: Group.
#     Col. 8: html.
#     Col. 9: startValue.
#     Col. 10: endValue.
#     Col. 11: value.
#     Col. 12: _REACTION_TIME_.
1565024361,521996879b294ffadc36c8364e6299f9,MultiSlider,68,0,EveryNot.None.NoneBias,20,<b>How many</b> of the medals did she win?,0.00,100.00,39.11
1565024361,521996879b294ffadc36c8364e6299f9,MultiSlider,68,0,EveryNot.None.NoneBias,20,Did she win<b> all of </b> the medals?,0.00,100.00,18.78,29049.00
# Columns below this comment are as follows:
# 1. Time results were received.
# 2. MD5 hash of participant's IP address.
# 3. Controller name.
# 4. Item number.
# 5. Element number.
# 6. Type.
# 7. Group.
# 8. Sentence (or sentence MD5).
1565024361,521996879b294ffadc36c8364e6299f9,MultiSlider,69,0,EveryNot.None.HowManyBias,21,Julia is a straight-A student. This semester%2C she enrolled for the easiest classes. After the semester%2C her mother phoned her to find out how her daughter had performed this semester.
1565024361,521996879b294ffadc36c8364e6299f9,MultiSlider,69,0,EveryNot.None.HowManyBias,21,How relevant are the following questions for the story?
# The lines below this comment are in groups of 2.
# The formats of the lines in each of these groups are as follows:
#
# Line 1:
#     Col. 1: Time results were received.
#     Col. 2: MD5 hash of participant's IP address.
#     Col. 3: Controller name.
#     Col. 4: Item number.
#     Col. 5: Element number.
#     Col. 6: Type.
#     Col. 7: Group.
#     Col. 8: html1.
#     Col. 9: startValue.
#     Col. 10: endValue.
#     Col. 11: value.
# Line 2:
#     Col. 1: Time results were received.
#     Col. 2: MD5 hash of participant's IP address.
#     Col. 3: Controller name.
#     Col. 4: Item number.
#     Col. 5: Element number.
#     Col. 6: Type.
#     Col. 7: Group.
#     Col. 8: html2.
#     Col. 9: startValue.
#     Col. 10: endValue.
#     Col. 11: value.
1565024361,521996879b294ffadc36c8364e6299f9,MultiSlider,69,0,EveryNot.None.HowManyBias,21,Did Julia fail<b> all of </b> the classes?,0.00,100.00,11.11
1565024361,521996879b294ffadc36c8364e6299f9,MultiSlider,69,0,EveryNot.None.HowManyBias,21,Did Julia fail<b> any of </b>the classes?,0.00,100.00,62.78
# Columns below this comment are as follows:
# 1. Time results were received.
# 2. MD5 hash of participant's IP address.
# 3. Controller name.
# 4. Item number.
# 5. Element number.
# 6. Type.
# 7. Group.
# 8. html2.
# 9. startValue.
# 10. endValue.
# 11. value.
1565024361,521996879b294ffadc36c8364e6299f9,MultiSlider,69,0,EveryNot.None.HowManyBias,21,Did Julia fail<b> any of </b>the classes?,0.00,100.00,81.44
1565024361,521996879b294ffadc36c8364e6299f9,MultiSlider,69,0,EveryNot.None.HowManyBias,21,Did Julia fail<b> any of </b>the classes?,0.00,100.00,72.78
# The lines below this comment are in groups of 2.
# The formats of the lines in each of these groups are as follows:
#
# Line 1:
#     Col. 1: Time results were received.
#     Col. 2: MD5 hash of participant's IP address.
#     Col. 3: Controller name.
#     Col. 4: Item number.
#     Col. 5: Element number.
#     Col. 6: Type.
#     Col. 7: Group.
#     Col. 8: html.
#     Col. 9: startValue.
#     Col. 10: endValue.
#     Col. 11: value.
#     Col. 12: _REACTION_TIME_.
# Line 2:
#     Col. 1: Time results were received.
#     Col. 2: MD5 hash of participant's IP address.
#     Col. 3: Controller name.
#     Col. 4: Item number.
#     Col. 5: Element number.
#     Col. 6: Type.
#     Col. 7: Group.
#     Col. 8: Sentence (or sentence MD5).
1565024361,521996879b294ffadc36c8364e6299f9,MultiSlider,69,0,EveryNot.None.HowManyBias,21,<b>How many</b> of the classes did Julia fail?,0.00,100.00,71.78,21117.00
1565024361,521996879b294ffadc36c8364e6299f9,MultiSlider,60,0,EveryNot.None.HowManyBias,18,Paul lives on a sheep farm his parents bought for him%2C but plays video games all day. His parents called him to remind him that his living situation is dependent on the number of sheep he sells.
# The lines below this comment are in groups of 2.
# The formats of the lines in each of these groups are as follows:
#
# Line 1:
#     Col. 1: Time results were received.
#     Col. 2: MD5 hash of participant's IP address.
#     Col. 3: Controller name.
#     Col. 4: Item number.
#     Col. 5: Element number.
#     Col. 6: Type.
#     Col. 7: Group.
#     Col. 8: Sentence (or sentence MD5).
# Line 2:
#     Col. 1: Time results were received.
#     Col. 2: MD5 hash of participant's IP address.
#     Col. 3: Controller name.
#     Col. 4: Item number.
#     Col. 5: Element number.
#     Col. 6: Type.
#     Col. 7: Group.
#     Col. 8: html1.
#     Col. 9: startValue.
#     Col. 10: endValue.
#     Col. 11: value.
1565024361,521996879b294ffadc36c8364e6299f9,MultiSlider,60,0,EveryNot.None.HowManyBias,18,How relevant are the following questions for the story?
1565024361,521996879b294ffadc36c8364e6299f9,MultiSlider,60,0,EveryNot.None.HowManyBias,18,<b>Have all</b> of the sheep been sold?,0.00,100.00,12.44
# The lines below this comment are in groups of 2.
# The formats of the lines in each of these groups are as follows:
#
# Line 1:
#     Col. 1: Time results were received.
#     Col. 2: MD5 hash of participant's IP address.
#     Col. 3: Controller name.
#     Col. 4: Item number.
#     Col. 5: Element number.
#     Col. 6: Type.
#     Col. 7: Group.
#     Col. 8: html2.
#     Col. 9: startValue.
#     Col. 10: endValue.
#     Col. 11: value.
# Line 2:
#     Col. 1: Time results were received.
#     Col. 2: MD5 hash of participant's IP address.
#     Col. 3: Controller name.
#     Col. 4: Item number.
#     Col. 5: Element number.
#     Col. 6: Type.
#     Col. 7: Group.
#     Col. 8: html.
#     Col. 9: startValue.
#     Col. 10: endValue.
#     Col. 11: value.
#     Col. 12: _REACTION_TIME_.
1565024361,521996879b294ffadc36c8364e6299f9,MultiSlider,60,0,EveryNot.None.HowManyBias,18,<b>Have any</b> of the sheep been sold?,0.00,100.00,71.78
1565024361,521996879b294ffadc36c8364e6299f9,MultiSlider,60,0,EveryNot.None.HowManyBias,18,<b>How many</b> of the sheep have been sold?,0.00,100.00,75.78,16879.00
# Columns below this comment are as follows:
# 1. Time results were received.
# 2. MD5 hash of participant's IP address.
# 3. Controller name.
# 4. Item number.
# 5. Element number.
# 6. Type.
# 7. Group.
# 8. Sentence (or sentence MD5).
1565024361,521996879b294ffadc36c8364e6299f9,MultiSlider,28,0,EveryNot.All.AllBias,7,The nursery normally changes infants' diapers before they go to nap. This afternoon%2C a health inspector wanted to make sure all of the infants had been changed before nap time.
1565024361,521996879b294ffadc36c8364e6299f9,MultiSlider,28,0,EveryNot.All.AllBias,7,How relevant are the following questions for the story?
# The lines below this comment are in groups of 2.
# The formats of the lines in each of these groups are as follows:
#
# Line 1:
#     Col. 1: Time results were received.
#     Col. 2: MD5 hash of participant's IP address.
#     Col. 3: Controller name.
#     Col. 4: Item number.
#     Col. 5: Element number.
#     Col. 6: Type.
#     Col. 7: Group.
#     Col. 8: html1.
#     Col. 9: startValue.
#     Col. 10: endValue.
#     Col. 11: value.
# Line 2:
#     Col. 1: Time results were received.
#     Col. 2: MD5 hash of participant's IP address.
#     Col. 3: Controller name.
#     Col. 4: Item number.
#     Col. 5: Element number.
#     Col. 6: Type.
#     Col. 7: Group.
#     Col. 8: html2.
#     Col. 9: startValue.
#     Col. 10: endValue.
#     Col. 11: value.
1565024361,521996879b294ffadc36c8364e6299f9,MultiSlider,28,0,EveryNot.All.AllBias,7,<b>How many</b> of the infants have been changed,0.00,100.00,74.78
1565024361,521996879b294ffadc36c8364e6299f9,MultiSlider,28,0,EveryNot.All.AllBias,7,<b>Have all</b> of the infants been changed?,0.00,100.00,71.11
# The lines below this comment are in groups of 2.
# The formats of the lines in each of these groups are as follows:
#
# Line 1:
#     Col. 1: Time results were received.
#     Col. 2: MD5 hash of participant's IP address.
#     Col. 3: Controller name.
#     Col. 4: Item number.
#     Col. 5: Element number.
#     Col. 6: Type.
#     Col. 7: Group.
#     Col. 8: html.
#     Col. 9: startValue.
#     Col. 10: endValue.
#     Col. 11: value.
#     Col. 12: _REACTION_TIME_.
# Line 2:
#     Col. 1: Time results were received.
#     Col. 2: MD5 hash of participant's IP address.
#     Col. 3: Controller name.
#     Col. 4: Item number.
#     Col. 5: Element number.
#     Col. 6: Type.
#     Col. 7: Group.
#     Col. 8: Sentence (or sentence MD5).
1565024361,521996879b294ffadc36c8364e6299f9,MultiSlider,28,0,EveryNot.All.AllBias,7,<b>Have any</b> of the infants been changed?,0.00,100.00,73.44,15647.00
1565024361,521996879b294ffadc36c8364e6299f9,MultiSlider,64,0,EveryNot.None.AllBias,19,Bill is an average runner who tried to break five Guinness records of running. At the day of the challenge%2C he swore that he was going to get all the records under his belt.
# The lines below this comment are in groups of 2.
# The formats of the lines in each of these groups are as follows:
#
# Line 1:
#     Col. 1: Time results were received.
#     Col. 2: MD5 hash of participant's IP address.
#     Col. 3: Controller name.
#     Col. 4: Item number.
#     Col. 5: Element number.
#     Col. 6: Type.
#     Col. 7: Group.
#     Col. 8: Sentence (or sentence MD5).
# Line 2:
#     Col. 1: Time results were received.
#     Col. 2: MD5 hash of participant's IP address.
#     Col. 3: Controller name.
#     Col. 4: Item number.
#     Col. 5: Element number.
#     Col. 6: Type.
#     Col. 7: Group.
#     Col. 8: html1.
#     Col. 9: startValue.
#     Col. 10: endValue.
#     Col. 11: value.
1565024361,521996879b294ffadc36c8364e6299f9,MultiSlider,64,0,EveryNot.None.AllBias,19,How relevant are the following questions for the story?
1565024361,521996879b294ffadc36c8364e6299f9,MultiSlider,64,0,EveryNot.None.AllBias,19,<b>How many</b> of the records were broken in the end?,0.00,100.00,67.11
# The lines below this comment are in groups of 2.
# The formats of the lines in each of these groups are as follows:
#
# Line 1:
#     Col. 1: Time results were received.
#     Col. 2: MD5 hash of participant's IP address.
#     Col. 3: Controller name.
#     Col. 4: Item number.
#     Col. 5: Element number.
#     Col. 6: Type.
#     Col. 7: Group.
#     Col. 8: html1.
#     Col. 9: startValue.
#     Col. 10: endValue.
#     Col. 11: value.
# Line 2:
#     Col. 1: Time results were received.
#     Col. 2: MD5 hash of participant's IP address.
#     Col. 3: Controller name.
#     Col. 4: Item number.
#     Col. 5: Element number.
#     Col. 6: Type.
#     Col. 7: Group.
#     Col. 8: html2.
#     Col. 9: startValue.
#     Col. 10: endValue.
#     Col. 11: value.
1565024361,521996879b294ffadc36c8364e6299f9,MultiSlider,64,0,EveryNot.None.AllBias,19,<b>How many</b> of the records were broken in the end?,0.00,100.00,81.11
1565024361,521996879b294ffadc36c8364e6299f9,MultiSlider,64,0,EveryNot.None.AllBias,19,<b>Were all</b> of the records broken in the end?,0.00,100.00,10.44
# The lines below this comment are in groups of 2.
# The formats of the lines in each of these groups are as follows:
#
# Line 1:
#     Col. 1: Time results were received.
#     Col. 2: MD5 hash of participant's IP address.
#     Col. 3: Controller name.
#     Col. 4: Item number.
#     Col. 5: Element number.
#     Col. 6: Type.
#     Col. 7: Group.
#     Col. 8: html2.
#     Col. 9: startValue.
#     Col. 10: endValue.
#     Col. 11: value.
# Line 2:
#     Col. 1: Time results were received.
#     Col. 2: MD5 hash of participant's IP address.
#     Col. 3: Controller name.
#     Col. 4: Item number.
#     Col. 5: Element number.
#     Col. 6: Type.
#     Col. 7: Group.
#     Col. 8: html.
#     Col. 9: startValue.
#     Col. 10: endValue.
#     Col. 11: value.
#     Col. 12: _REACTION_TIME_.
1565024361,521996879b294ffadc36c8364e6299f9,MultiSlider,64,0,EveryNot.None.AllBias,19,<b>Were all</b> of the records broken in the end?,0.00,100.00,18.44
1565024361,521996879b294ffadc36c8364e6299f9,MultiSlider,64,0,EveryNot.None.AllBias,19,<b>Were any</b> of the records broken in the end?,0.00,100.00,83.11,16730.00
# Columns below this comment are as follows:
# 1. Time results were received.
# 2. MD5 hash of participant's IP address.
# 3. Controller name.
# 4. Item number.
# 5. Element number.
# 6. Type.
# 7. Group.
# 8. Sentence (or sentence MD5).
1565024361,521996879b294ffadc36c8364e6299f9,MultiSlider,32,0,EveryNot.All.NoneBias,8,A glamorous cocktail event was being held in the Hilton hotel. When guests arrived%2C the receptionist wanted to see if anyone observed the dress code in the invitation.
1565024361,521996879b294ffadc36c8364e6299f9,MultiSlider,32,0,EveryNot.All.NoneBias,8,How relevant are the following questions for the story?
# The lines below this comment are in groups of 2.
# The formats of the lines in each of these groups are as follows:
#
# Line 1:
#     Col. 1: Time results were received.
#     Col. 2: MD5 hash of participant's IP address.
#     Col. 3: Controller name.
#     Col. 4: Item number.
#     Col. 5: Element number.
#     Col. 6: Type.
#     Col. 7: Group.
#     Col. 8: html1.
#     Col. 9: startValue.
#     Col. 10: endValue.
#     Col. 11: value.
# Line 2:
#     Col. 1: Time results were received.
#     Col. 2: MD5 hash of participant's IP address.
#     Col. 3: Controller name.
#     Col. 4: Item number.
#     Col. 5: Element number.
#     Col. 6: Type.
#     Col. 7: Group.
#     Col. 8: html2.
#     Col. 9: startValue.
#     Col. 10: endValue.
#     Col. 11: value.
1565024361,521996879b294ffadc36c8364e6299f9,MultiSlider,32,0,EveryNot.All.NoneBias,8,<b>Were any</b> of the guests dressed properly?,0.00,100.00,73.78
1565024361,521996879b294ffadc36c8364e6299f9,MultiSlider,32,0,EveryNot.All.NoneBias,8,<b>How many</b> of the guests were dressed properly?,0.00,100.00,75.11
# The lines below this comment are in groups of 2.
# The formats of the lines in each of these groups are as follows:
#
# Line 1:
#     Col. 1: Time results were received.
#     Col. 2: MD5 hash of participant's IP address.
#     Col. 3: Controller name.
#     Col. 4: Item number.
#     Col. 5: Element number.
#     Col. 6: Type.
#     Col. 7: Group.
#     Col. 8: html.
#     Col. 9: startValue.
#     Col. 10: endValue.
#     Col. 11: value.
#     Col. 12: _REACTION_TIME_.
# Line 2:
#     Col. 1: Time results were received.
#     Col. 2: MD5 hash of participant's IP address.
#     Col. 3: Controller name.
#     Col. 4: Item number.
#     Col. 5: Element number.
#     Col. 6: Type.
#     Col. 7: Group.
#     Col. 8: Sentence (or sentence MD5).
1565024361,521996879b294ffadc36c8364e6299f9,MultiSlider,32,0,EveryNot.All.NoneBias,8,<b>Were all</b> of the guests dressed properly?,0.00,100.00,18.11,12750.00
1565024361,521996879b294ffadc36c8364e6299f9,MultiSlider,46,0,EveryNot.Some.AllBias,13,Lily inherited her mom's huge book collection. When her boyfriend visited%2C he wondered if Lily had already cataloged the entire collection.
# The lines below this comment are in groups of 2.
# The formats of the lines in each of these groups are as follows:
#
# Line 1:
#     Col. 1: Time results were received.
#     Col. 2: MD5 hash of participant's IP address.
#     Col. 3: Controller name.
#     Col. 4: Item number.
#     Col. 5: Element number.
#     Col. 6: Type.
#     Col. 7: Group.
#     Col. 8: Sentence (or sentence MD5).
# Line 2:
#     Col. 1: Time results were received.
#     Col. 2: MD5 hash of participant's IP address.
#     Col. 3: Controller name.
#     Col. 4: Item number.
#     Col. 5: Element number.
#     Col. 6: Type.
#     Col. 7: Group.
#     Col. 8: html1.
#     Col. 9: startValue.
#     Col. 10: endValue.
#     Col. 11: value.
1565024361,521996879b294ffadc36c8364e6299f9,MultiSlider,46,0,EveryNot.Some.AllBias,13,How relevant are the following questions for the story?
1565024361,521996879b294ffadc36c8364e6299f9,MultiSlider,46,0,EveryNot.Some.AllBias,13,<b>How many</b> of the books have been cataloged?,0.00,100.00,79.78
# The lines below this comment are in groups of 2.
# The formats of the lines in each of these groups are as follows:
#
# Line 1:
#     Col. 1: Time results were received.
#     Col. 2: MD5 hash of participant's IP address.
#     Col. 3: Controller name.
#     Col. 4: Item number.
#     Col. 5: Element number.
#     Col. 6: Type.
#     Col. 7: Group.
#     Col. 8: html2.
#     Col. 9: startValue.
#     Col. 10: endValue.
#     Col. 11: value.
# Line 2:
#     Col. 1: Time results were received.
#     Col. 2: MD5 hash of participant's IP address.
#     Col. 3: Controller name.
#     Col. 4: Item number.
#     Col. 5: Element number.
#     Col. 6: Type.
#     Col. 7: Group.
#     Col. 8: html.
#     Col. 9: startValue.
#     Col. 10: endValue.
#     Col. 11: value.
#     Col. 12: _REACTION_TIME_.
1565024361,521996879b294ffadc36c8364e6299f9,MultiSlider,46,0,EveryNot.Some.AllBias,13,<b>Have all</b> of the books been cataloged?,0.00,100.00,21.78
1565024361,521996879b294ffadc36c8364e6299f9,MultiSlider,46,0,EveryNot.Some.AllBias,13,<b>Have any</b> of the books been cataloged?,0.00,100.00,79.44,10512.00
# Columns below this comment are as follows:
# 1. Time results were received.
# 2. MD5 hash of participant's IP address.
# 3. Controller name.
# 4. Item number.
# 5. Element number.
# 6. Type.
# 7. Group.
# 8. Sentence (or sentence MD5).
1565024361,521996879b294ffadc36c8364e6299f9,MultiSlider,73,0,EveryNot.None.AllBias,22,The unsuccessful broker has made some risky investments in the stock market. He nervously stared at the monitor%2C because his house may be foreclosed unless all of his investments work out.
1565024361,521996879b294ffadc36c8364e6299f9,MultiSlider,73,0,EveryNot.None.AllBias,22,How relevant are the following questions for the story?
# Columns below this comment are as follows:
# 1. Time results were received.
# 2. MD5 hash of participant's IP address.
# 3. Controller name.
# 4. Item number.
# 5. Element number.
# 6. Type.
# 7. Group.
# 8. html1.
# 9. startValue.
# 10. endValue.
# 11. value.
1565024361,521996879b294ffadc36c8364e6299f9,MultiSlider,73,0,EveryNot.None.AllBias,22,<b>How many</b> of the investment paid off?,0.00,100.00,5.11
1565024361,521996879b294ffadc36c8364e6299f9,MultiSlider,73,0,EveryNot.None.AllBias,22,<b>How many</b> of the investment paid off?,0.00,100.00,11.78
1565024361,521996879b294ffadc36c8364e6299f9,MultiSlider,73,0,EveryNot.None.AllBias,22,<b>How many</b> of the investment paid off?,0.00,100.00,18.11
1565024361,521996879b294ffadc36c8364e6299f9,MultiSlider,73,0,EveryNot.None.AllBias,22,<b>How many</b> of the investment paid off?,0.00,100.00,27.44
# The lines below this comment are in groups of 2.
# The formats of the lines in each of these groups are as follows:
#
# Line 1:
#     Col. 1: Time results were received.
#     Col. 2: MD5 hash of participant's IP address.
#     Col. 3: Controller name.
#     Col. 4: Item number.
#     Col. 5: Element number.
#     Col. 6: Type.
#     Col. 7: Group.
#     Col. 8: html2.
#     Col. 9: startValue.
#     Col. 10: endValue.
#     Col. 11: value.
# Line 2:
#     Col. 1: Time results were received.
#     Col. 2: MD5 hash of participant's IP address.
#     Col. 3: Controller name.
#     Col. 4: Item number.
#     Col. 5: Element number.
#     Col. 6: Type.
#     Col. 7: Group.
#     Col. 8: html.
#     Col. 9: startValue.
#     Col. 10: endValue.
#     Col. 11: value.
#     Col. 12: _REACTION_TIME_.
1565024361,521996879b294ffadc36c8364e6299f9,MultiSlider,73,0,EveryNot.None.AllBias,22,<b>Did all</b> of the investment pay off?,0.00,100.00,67.78
1565024361,521996879b294ffadc36c8364e6299f9,MultiSlider,73,0,EveryNot.None.AllBias,22,<b>Did any</b> of the investment pay off?,0.00,100.00,83.11,15928.00
# Columns below this comment are as follows:
# 1. Time results were received.
# 2. MD5 hash of participant's IP address.
# 3. Controller name.
# 4. Item number.
# 5. Element number.
# 6. Type.
# 7. Group.
# 8. Sentence (or sentence MD5).
1565024361,521996879b294ffadc36c8364e6299f9,MultiSlider,24,0,EveryNot.All.HowManyBias,6,Eric is a professional producer working on a new album. One day%2C he called the composer  to ask about their progress in demoing the new songs.
1565024361,521996879b294ffadc36c8364e6299f9,MultiSlider,24,0,EveryNot.All.HowManyBias,6,How relevant are the following questions for the story?
# The lines below this comment are in groups of 2.
# The formats of the lines in each of these groups are as follows:
#
# Line 1:
#     Col. 1: Time results were received.
#     Col. 2: MD5 hash of participant's IP address.
#     Col. 3: Controller name.
#     Col. 4: Item number.
#     Col. 5: Element number.
#     Col. 6: Type.
#     Col. 7: Group.
#     Col. 8: html1.
#     Col. 9: startValue.
#     Col. 10: endValue.
#     Col. 11: value.
# Line 2:
#     Col. 1: Time results were received.
#     Col. 2: MD5 hash of participant's IP address.
#     Col. 3: Controller name.
#     Col. 4: Item number.
#     Col. 5: Element number.
#     Col. 6: Type.
#     Col. 7: Group.
#     Col. 8: html2.
#     Col. 9: startValue.
#     Col. 10: endValue.
#     Col. 11: value.
1565024361,521996879b294ffadc36c8364e6299f9,MultiSlider,24,0,EveryNot.All.HowManyBias,6,<b>Have all</b> of the new songs been demoed?,0.00,100.00,13.11
1565024361,521996879b294ffadc36c8364e6299f9,MultiSlider,24,0,EveryNot.All.HowManyBias,6,<b>Have any</b> of the new songs been demoed?,0.00,100.00,79.44
# The lines below this comment are in groups of 2.
# The formats of the lines in each of these groups are as follows:
#
# Line 1:
#     Col. 1: Time results were received.
#     Col. 2: MD5 hash of participant's IP address.
#     Col. 3: Controller name.
#     Col. 4: Item number.
#     Col. 5: Element number.
#     Col. 6: Type.
#     Col. 7: Group.
#     Col. 8: html.
#     Col. 9: startValue.
#     Col. 10: endValue.
#     Col. 11: value.
#     Col. 12: _REACTION_TIME_.
# Line 2:
#     Col. 1: Time results were received.
#     Col. 2: MD5 hash of participant's IP address.
#     Col. 3: Controller name.
#     Col. 4: Item number.
#     Col. 5: Element number.
#     Col. 6: Type.
#     Col. 7: Group.
#     Col. 8: Sentence (or sentence MD5).
1565024361,521996879b294ffadc36c8364e6299f9,MultiSlider,24,0,EveryNot.All.HowManyBias,6,<b>How many</b> of the new songs have been demoed?,0.00,100.00,77.78,11915.00
1565024361,521996879b294ffadc36c8364e6299f9,MultiSlider,78,0,EveryNot.None.HowManyBias,24,Wayne is a diligent therapist who is always there for his patients. Today%2C he has a minor flu. His assistant asks how many appointments she has to cancel before he can come in.
# The lines below this comment are in groups of 2.
# The formats of the lines in each of these groups are as follows:
#
# Line 1:
#     Col. 1: Time results were received.
#     Col. 2: MD5 hash of participant's IP address.
#     Col. 3: Controller name.
#     Col. 4: Item number.
#     Col. 5: Element number.
#     Col. 6: Type.
#     Col. 7: Group.
#     Col. 8: Sentence (or sentence MD5).
# Line 2:
#     Col. 1: Time results were received.
#     Col. 2: MD5 hash of participant's IP address.
#     Col. 3: Controller name.
#     Col. 4: Item number.
#     Col. 5: Element number.
#     Col. 6: Type.
#     Col. 7: Group.
#     Col. 8: html1.
#     Col. 9: startValue.
#     Col. 10: endValue.
#     Col. 11: value.
1565024361,521996879b294ffadc36c8364e6299f9,MultiSlider,78,0,EveryNot.None.HowManyBias,24,How relevant are the following questions for the story?
1565024361,521996879b294ffadc36c8364e6299f9,MultiSlider,78,0,EveryNot.None.HowManyBias,24,<b>Were all</b> of the appointments cancelled?,0.00,100.00,11.11
# The lines below this comment are in groups of 2.
# The formats of the lines in each of these groups are as follows:
#
# Line 1:
#     Col. 1: Time results were received.
#     Col. 2: MD5 hash of participant's IP address.
#     Col. 3: Controller name.
#     Col. 4: Item number.
#     Col. 5: Element number.
#     Col. 6: Type.
#     Col. 7: Group.
#     Col. 8: html1.
#     Col. 9: startValue.
#     Col. 10: endValue.
#     Col. 11: value.
# Line 2:
#     Col. 1: Time results were received.
#     Col. 2: MD5 hash of participant's IP address.
#     Col. 3: Controller name.
#     Col. 4: Item number.
#     Col. 5: Element number.
#     Col. 6: Type.
#     Col. 7: Group.
#     Col. 8: html2.
#     Col. 9: startValue.
#     Col. 10: endValue.
#     Col. 11: value.
1565024361,521996879b294ffadc36c8364e6299f9,MultiSlider,78,0,EveryNot.None.HowManyBias,24,<b>Were all</b> of the appointments cancelled?,0.00,100.00,32.11
1565024361,521996879b294ffadc36c8364e6299f9,MultiSlider,78,0,EveryNot.None.HowManyBias,24,<b>Were any</b> of the appointments cancelled?,0.00,100.00,65.78
# Columns below this comment are as follows:
# 1. Time results were received.
# 2. MD5 hash of participant's IP address.
# 3. Controller name.
# 4. Item number.
# 5. Element number.
# 6. Type.
# 7. Group.
# 8. html2.
# 9. startValue.
# 10. endValue.
# 11. value.
1565024361,521996879b294ffadc36c8364e6299f9,MultiSlider,78,0,EveryNot.None.HowManyBias,24,<b>Were any</b> of the appointments cancelled?,0.00,100.00,86.44
1565024361,521996879b294ffadc36c8364e6299f9,MultiSlider,78,0,EveryNot.None.HowManyBias,24,<b>Were any</b> of the appointments cancelled?,0.00,100.00,71.78
# The lines below this comment are in groups of 2.
# The formats of the lines in each of these groups are as follows:
#
# Line 1:
#     Col. 1: Time results were received.
#     Col. 2: MD5 hash of participant's IP address.
#     Col. 3: Controller name.
#     Col. 4: Item number.
#     Col. 5: Element number.
#     Col. 6: Type.
#     Col. 7: Group.
#     Col. 8: html.
#     Col. 9: startValue.
#     Col. 10: endValue.
#     Col. 11: value.
#     Col. 12: _REACTION_TIME_.
# Line 2:
#     Col. 1: Time results were received.
#     Col. 2: MD5 hash of participant's IP address.
#     Col. 3: Controller name.
#     Col. 4: Item number.
#     Col. 5: Element number.
#     Col. 6: Type.
#     Col. 7: Group.
#     Col. 8: Sentence (or sentence MD5).
1565024361,521996879b294ffadc36c8364e6299f9,MultiSlider,78,0,EveryNot.None.HowManyBias,24,<b>How many</b> of the appointments were cancelled?,0.00,100.00,80.11,16510.00
1565024361,521996879b294ffadc36c8364e6299f9,MultiSlider,59,0,EveryNot.None.NoneBias,17,Jack is an incompetent homicide detective trying to solve three recent murders. His boss tells him that the newspapers will be all over him if he fails to solve any of these murders.
# The lines below this comment are in groups of 2.
# The formats of the lines in each of these groups are as follows:
#
# Line 1:
#     Col. 1: Time results were received.
#     Col. 2: MD5 hash of participant's IP address.
#     Col. 3: Controller name.
#     Col. 4: Item number.
#     Col. 5: Element number.
#     Col. 6: Type.
#     Col. 7: Group.
#     Col. 8: Sentence (or sentence MD5).
# Line 2:
#     Col. 1: Time results were received.
#     Col. 2: MD5 hash of participant's IP address.
#     Col. 3: Controller name.
#     Col. 4: Item number.
#     Col. 5: Element number.
#     Col. 6: Type.
#     Col. 7: Group.
#     Col. 8: html1.
#     Col. 9: startValue.
#     Col. 10: endValue.
#     Col. 11: value.
1565024361,521996879b294ffadc36c8364e6299f9,MultiSlider,59,0,EveryNot.None.NoneBias,17,How relevant are the following questions for the story?
1565024361,521996879b294ffadc36c8364e6299f9,MultiSlider,59,0,EveryNot.None.NoneBias,17,<b>Have any</b> of the cases been solved?,0.00,100.00,70.11
# The lines below this comment are in groups of 2.
# The formats of the lines in each of these groups are as follows:
#
# Line 1:
#     Col. 1: Time results were received.
#     Col. 2: MD5 hash of participant's IP address.
#     Col. 3: Controller name.
#     Col. 4: Item number.
#     Col. 5: Element number.
#     Col. 6: Type.
#     Col. 7: Group.
#     Col. 8: html1.
#     Col. 9: startValue.
#     Col. 10: endValue.
#     Col. 11: value.
# Line 2:
#     Col. 1: Time results were received.
#     Col. 2: MD5 hash of participant's IP address.
#     Col. 3: Controller name.
#     Col. 4: Item number.
#     Col. 5: Element number.
#     Col. 6: Type.
#     Col. 7: Group.
#     Col. 8: html2.
#     Col. 9: startValue.
#     Col. 10: endValue.
#     Col. 11: value.
1565024361,521996879b294ffadc36c8364e6299f9,MultiSlider,59,0,EveryNot.None.NoneBias,17,<b>Have any</b> of the cases been solved?,0.00,100.00,84.44
1565024361,521996879b294ffadc36c8364e6299f9,MultiSlider,59,0,EveryNot.None.NoneBias,17,<b>How many</b> of the cases have been solved?,0.00,100.00,71.11
# The lines below this comment are in groups of 2.
# The formats of the lines in each of these groups are as follows:
#
# Line 1:
#     Col. 1: Time results were received.
#     Col. 2: MD5 hash of participant's IP address.
#     Col. 3: Controller name.
#     Col. 4: Item number.
#     Col. 5: Element number.
#     Col. 6: Type.
#     Col. 7: Group.
#     Col. 8: html.
#     Col. 9: startValue.
#     Col. 10: endValue.
#     Col. 11: value.
#     Col. 12: _REACTION_TIME_.
# Line 2:
#     Col. 1: Time results were received.
#     Col. 2: MD5 hash of participant's IP address.
#     Col. 3: Controller name.
#     Col. 4: Item number.
#     Col. 5: Element number.
#     Col. 6: Type.
#     Col. 7: Group.
#     Col. 8: Sentence (or sentence MD5).
1565024361,521996879b294ffadc36c8364e6299f9,MultiSlider,59,0,EveryNot.None.NoneBias,17,<b>Have all</b> of the cases been solved?,0.00,100.00,65.78,16330.00
1565024361,521996879b294ffadc36c8364e6299f9,MultiSlider,15,0,EveryNot.All.HowManyBias,3,Rachel is an industrious teaching assistant who has to grade student essays. After a week%2C her boss asks how much progress she's made so far.
# The lines below this comment are in groups of 2.
# The formats of the lines in each of these groups are as follows:
#
# Line 1:
#     Col. 1: Time results were received.
#     Col. 2: MD5 hash of participant's IP address.
#     Col. 3: Controller name.
#     Col. 4: Item number.
#     Col. 5: Element number.
#     Col. 6: Type.
#     Col. 7: Group.
#     Col. 8: Sentence (or sentence MD5).
# Line 2:
#     Col. 1: Time results were received.
#     Col. 2: MD5 hash of participant's IP address.
#     Col. 3: Controller name.
#     Col. 4: Item number.
#     Col. 5: Element number.
#     Col. 6: Type.
#     Col. 7: Group.
#     Col. 8: html1.
#     Col. 9: startValue.
#     Col. 10: endValue.
#     Col. 11: value.
1565024361,521996879b294ffadc36c8364e6299f9,MultiSlider,15,0,EveryNot.All.HowManyBias,3,How relevant are the following questions for the story?
1565024361,521996879b294ffadc36c8364e6299f9,MultiSlider,15,0,EveryNot.All.HowManyBias,3,<b>Were all</b> of the student essays graded?,0.00,100.00,80.44
# The lines below this comment are in groups of 2.
# The formats of the lines in each of these groups are as follows:
#
# Line 1:
#     Col. 1: Time results were received.
#     Col. 2: MD5 hash of participant's IP address.
#     Col. 3: Controller name.
#     Col. 4: Item number.
#     Col. 5: Element number.
#     Col. 6: Type.
#     Col. 7: Group.
#     Col. 8: html2.
#     Col. 9: startValue.
#     Col. 10: endValue.
#     Col. 11: value.
# Line 2:
#     Col. 1: Time results were received.
#     Col. 2: MD5 hash of participant's IP address.
#     Col. 3: Controller name.
#     Col. 4: Item number.
#     Col. 5: Element number.
#     Col. 6: Type.
#     Col. 7: Group.
#     Col. 8: html.
#     Col. 9: startValue.
#     Col. 10: endValue.
#     Col. 11: value.
#     Col. 12: _REACTION_TIME_.
1565024361,521996879b294ffadc36c8364e6299f9,MultiSlider,15,0,EveryNot.All.HowManyBias,3,<b>Were any</b> of the student essays graded?,0.00,100.00,71.44
1565024361,521996879b294ffadc36c8364e6299f9,MultiSlider,15,0,EveryNot.All.HowManyBias,3,<b>How many</b> of the student essays were graded?,0.00,100.00,62.44,16539.00
# Columns below this comment are as follows:
# 1. Time results were received.
# 2. MD5 hash of participant's IP address.
# 3. Controller name.
# 4. Item number.
# 5. Element number.
# 6. Type.
# 7. Group.
# 8. Sentence (or sentence MD5).
1565024361,521996879b294ffadc36c8364e6299f9,MultiSlider,50,0,EveryNot.Some.NoneBias,14,Roy recently started a career as a professional gamer. A journalist interviewed him%2C and asked if he had already been invited to any of the five Major League Gaming tournaments.
1565024361,521996879b294ffadc36c8364e6299f9,MultiSlider,50,0,EveryNot.Some.NoneBias,14,How relevant are the following questions for the story?
# Columns below this comment are as follows:
# 1. Time results were received.
# 2. MD5 hash of participant's IP address.
# 3. Controller name.
# 4. Item number.
# 5. Element number.
# 6. Type.
# 7. Group.
# 8. html1.
# 9. startValue.
# 10. endValue.
# 11. value.
1565024361,521996879b294ffadc36c8364e6299f9,MultiSlider,50,0,EveryNot.Some.NoneBias,14,Has Roy been invited to<b> any of </b>the Major League Gaming tournaments?,0.00,100.00,63.11
1565024361,521996879b294ffadc36c8364e6299f9,MultiSlider,50,0,EveryNot.Some.NoneBias,14,Has Roy been invited to<b> any of </b>the Major League Gaming tournaments?,0.00,100.00,77.78
# The lines below this comment are in groups of 2.
# The formats of the lines in each of these groups are as follows:
#
# Line 1:
#     Col. 1: Time results were received.
#     Col. 2: MD5 hash of participant's IP address.
#     Col. 3: Controller name.
#     Col. 4: Item number.
#     Col. 5: Element number.
#     Col. 6: Type.
#     Col. 7: Group.
#     Col. 8: html2.
#     Col. 9: startValue.
#     Col. 10: endValue.
#     Col. 11: value.
# Line 2:
#     Col. 1: Time results were received.
#     Col. 2: MD5 hash of participant's IP address.
#     Col. 3: Controller name.
#     Col. 4: Item number.
#     Col. 5: Element number.
#     Col. 6: Type.
#     Col. 7: Group.
#     Col. 8: html.
#     Col. 9: startValue.
#     Col. 10: endValue.
#     Col. 11: value.
#     Col. 12: _REACTION_TIME_.
1565024361,521996879b294ffadc36c8364e6299f9,MultiSlider,50,0,EveryNot.Some.NoneBias,14,<b>How many</b> of the Major League Gaming tournaments has Roy been invited to?,0.00,100.00,71.78
1565024361,521996879b294ffadc36c8364e6299f9,MultiSlider,50,0,EveryNot.Some.NoneBias,14,Has Roy been invited to<b> all of </b>the Major League Gaming tournaments?,0.00,100.00,10.44,22588.00
# Columns below this comment are as follows:
# 1. Time results were received.
# 2. MD5 hash of participant's IP address.
# 3. Controller name.
# 4. Item number.
# 5. Element number.
# 6. Type.
# 7. Group.
# 8. Sentence (or sentence MD5).
1565024361,521996879b294ffadc36c8364e6299f9,MultiSlider,77,0,EveryNot.None.NoneBias,23,The hospital has the best doctors in the country. One day%2C five patients had to be operated on for fractures in arms and legs. Afterwards%2C a news reporter asked whether any of the patients had been successfully treated.
1565024361,521996879b294ffadc36c8364e6299f9,MultiSlider,77,0,EveryNot.None.NoneBias,23,How relevant are the following questions for the story?
# The lines below this comment are in groups of 2.
# The formats of the lines in each of these groups are as follows:
#
# Line 1:
#     Col. 1: Time results were received.
#     Col. 2: MD5 hash of participant's IP address.
#     Col. 3: Controller name.
#     Col. 4: Item number.
#     Col. 5: Element number.
#     Col. 6: Type.
#     Col. 7: Group.
#     Col. 8: html1.
#     Col. 9: startValue.
#     Col. 10: endValue.
#     Col. 11: value.
# Line 2:
#     Col. 1: Time results were received.
#     Col. 2: MD5 hash of participant's IP address.
#     Col. 3: Controller name.
#     Col. 4: Item number.
#     Col. 5: Element number.
#     Col. 6: Type.
#     Col. 7: Group.
#     Col. 8: html2.
#     Col. 9: startValue.
#     Col. 10: endValue.
#     Col. 11: value.
1565024361,521996879b294ffadc36c8364e6299f9,MultiSlider,77,0,EveryNot.None.NoneBias,23,<b>Were any</b> of the operations successful?,0.00,100.00,73.44
1565024361,521996879b294ffadc36c8364e6299f9,MultiSlider,77,0,EveryNot.None.NoneBias,23,<b>How many</b> of the operations were successful?,0.00,100.00,69.11
# The lines below this comment are in groups of 2.
# The formats of the lines in each of these groups are as follows:
#
# Line 1:
#     Col. 1: Time results were received.
#     Col. 2: MD5 hash of participant's IP address.
#     Col. 3: Controller name.
#     Col. 4: Item number.
#     Col. 5: Element number.
#     Col. 6: Type.
#     Col. 7: Group.
#     Col. 8: html.
#     Col. 9: startValue.
#     Col. 10: endValue.
#     Col. 11: value.
#     Col. 12: _REACTION_TIME_.
# Line 2:
#     Col. 1: Time results were received.
#     Col. 2: MD5 hash of participant's IP address.
#     Col. 3: Controller name.
#     Col. 4: Item number.
#     Col. 5: Element number.
#     Col. 6: Type.
#     Col. 7: Group.
#     Col. 8: Sentence (or sentence MD5).
1565024361,521996879b294ffadc36c8364e6299f9,MultiSlider,77,0,EveryNot.None.NoneBias,23,<b>Were all</b> of the operations successful?,0.00,100.00,59.11,17369.00
1565024361,521996879b294ffadc36c8364e6299f9,MultiSlider,33,0,EveryNot.Some.HowManyBias,9,The teacher has just finished correcting exams. The dean wants an update because the amount of federal funds the school receives depends on the number of students who passed.
# The lines below this comment are in groups of 2.
# The formats of the lines in each of these groups are as follows:
#
# Line 1:
#     Col. 1: Time results were received.
#     Col. 2: MD5 hash of participant's IP address.
#     Col. 3: Controller name.
#     Col. 4: Item number.
#     Col. 5: Element number.
#     Col. 6: Type.
#     Col. 7: Group.
#     Col. 8: Sentence (or sentence MD5).
# Line 2:
#     Col. 1: Time results were received.
#     Col. 2: MD5 hash of participant's IP address.
#     Col. 3: Controller name.
#     Col. 4: Item number.
#     Col. 5: Element number.
#     Col. 6: Type.
#     Col. 7: Group.
#     Col. 8: html1.
#     Col. 9: startValue.
#     Col. 10: endValue.
#     Col. 11: value.
1565024361,521996879b294ffadc36c8364e6299f9,MultiSlider,33,0,EveryNot.Some.HowManyBias,9,How relevant are the following questions for the story?
1565024361,521996879b294ffadc36c8364e6299f9,MultiSlider,33,0,EveryNot.Some.HowManyBias,9,<b>Did all</b> of the students pass the exam?,0.00,100.00,12.78
# The lines below this comment are in groups of 2.
# The formats of the lines in each of these groups are as follows:
#
# Line 1:
#     Col. 1: Time results were received.
#     Col. 2: MD5 hash of participant's IP address.
#     Col. 3: Controller name.
#     Col. 4: Item number.
#     Col. 5: Element number.
#     Col. 6: Type.
#     Col. 7: Group.
#     Col. 8: html2.
#     Col. 9: startValue.
#     Col. 10: endValue.
#     Col. 11: value.
# Line 2:
#     Col. 1: Time results were received.
#     Col. 2: MD5 hash of participant's IP address.
#     Col. 3: Controller name.
#     Col. 4: Item number.
#     Col. 5: Element number.
#     Col. 6: Type.
#     Col. 7: Group.
#     Col. 8: html.
#     Col. 9: startValue.
#     Col. 10: endValue.
#     Col. 11: value.
#     Col. 12: _REACTION_TIME_.
1565024361,521996879b294ffadc36c8364e6299f9,MultiSlider,33,0,EveryNot.Some.HowManyBias,9,<b>Did any</b> of the students pass the exam?,0.00,100.00,83.11
1565024361,521996879b294ffadc36c8364e6299f9,MultiSlider,33,0,EveryNot.Some.HowManyBias,9,<b>How many</b> of the students passed the exam?,0.00,100.00,74.11,12767.00
# Columns below this comment are as follows:
# 1. Time results were received.
# 2. MD5 hash of participant's IP address.
# 3. Controller name.
# 4. Item number.
# 5. Element number.
# 6. Type.
# 7. Group.
# 8. Sentence (or sentence MD5).
1565024361,521996879b294ffadc36c8364e6299f9,MultiSlider,23,0,EveryNot.All.NoneBias,5,Paula is a dedicated store assistant. A week ago%2C five boxes of new products had arrived at the store. Her manager asked if she had begun opening the boxes.
1565024361,521996879b294ffadc36c8364e6299f9,MultiSlider,23,0,EveryNot.All.NoneBias,5,How relevant are the following questions for the story?
# The lines below this comment are in groups of 2.
# The formats of the lines in each of these groups are as follows:
#
# Line 1:
#     Col. 1: Time results were received.
#     Col. 2: MD5 hash of participant's IP address.
#     Col. 3: Controller name.
#     Col. 4: Item number.
#     Col. 5: Element number.
#     Col. 6: Type.
#     Col. 7: Group.
#     Col. 8: html1.
#     Col. 9: startValue.
#     Col. 10: endValue.
#     Col. 11: value.
# Line 2:
#     Col. 1: Time results were received.
#     Col. 2: MD5 hash of participant's IP address.
#     Col. 3: Controller name.
#     Col. 4: Item number.
#     Col. 5: Element number.
#     Col. 6: Type.
#     Col. 7: Group.
#     Col. 8: html2.
#     Col. 9: startValue.
#     Col. 10: endValue.
#     Col. 11: value.
1565024361,521996879b294ffadc36c8364e6299f9,MultiSlider,23,0,EveryNot.All.NoneBias,5,<b>Have any</b> of the boxes been opened?,0.00,100.00,75.11
1565024361,521996879b294ffadc36c8364e6299f9,MultiSlider,23,0,EveryNot.All.NoneBias,5,<b>How many</b> of the boxes have been opened?,0.00,100.00,72.78
# The lines below this comment are in groups of 2.
# The formats of the lines in each of these groups are as follows:
#
# Line 1:
#     Col. 1: Time results were received.
#     Col. 2: MD5 hash of participant's IP address.
#     Col. 3: Controller name.
#     Col. 4: Item number.
#     Col. 5: Element number.
#     Col. 6: Type.
#     Col. 7: Group.
#     Col. 8: html.
#     Col. 9: startValue.
#     Col. 10: endValue.
#     Col. 11: value.
#     Col. 12: _REACTION_TIME_.
# Line 2:
#     Col. 1: Time results were received.
#     Col. 2: MD5 hash of participant's IP address.
#     Col. 3: Controller name.
#     Col. 4: Item number.
#     Col. 5: Element number.
#     Col. 6: Type.
#     Col. 7: Group.
#     Col. 8: Sentence (or sentence MD5).
1565024361,521996879b294ffadc36c8364e6299f9,MultiSlider,23,0,EveryNot.All.NoneBias,5,<b>Have all</b> of the boxes been opened?,0.00,100.00,56.78,10891.00
1565024361,521996879b294ffadc36c8364e6299f9,MultiSlider,42,0,EveryNot.Some.HowManyBias,12,Sue and Marc went to a two-day science exhibition. On the first day%2C the organizers approached them and asked about the number of booths they had checked off the map so far.
# The lines below this comment are in groups of 2.
# The formats of the lines in each of these groups are as follows:
#
# Line 1:
#     Col. 1: Time results were received.
#     Col. 2: MD5 hash of participant's IP address.
#     Col. 3: Controller name.
#     Col. 4: Item number.
#     Col. 5: Element number.
#     Col. 6: Type.
#     Col. 7: Group.
#     Col. 8: Sentence (or sentence MD5).
# Line 2:
#     Col. 1: Time results were received.
#     Col. 2: MD5 hash of participant's IP address.
#     Col. 3: Controller name.
#     Col. 4: Item number.
#     Col. 5: Element number.
#     Col. 6: Type.
#     Col. 7: Group.
#     Col. 8: html1.
#     Col. 9: startValue.
#     Col. 10: endValue.
#     Col. 11: value.
1565024361,521996879b294ffadc36c8364e6299f9,MultiSlider,42,0,EveryNot.Some.HowManyBias,12,How relevant are the following questions for the story?
1565024361,521996879b294ffadc36c8364e6299f9,MultiSlider,42,0,EveryNot.Some.HowManyBias,12,Have Sue and Marc visited<b> all of </b>the booths so far?,0.00,100.00,74.44
# The lines below this comment are in groups of 2.
# The formats of the lines in each of these groups are as follows:
#
# Line 1:
#     Col. 1: Time results were received.
#     Col. 2: MD5 hash of participant's IP address.
#     Col. 3: Controller name.
#     Col. 4: Item number.
#     Col. 5: Element number.
#     Col. 6: Type.
#     Col. 7: Group.
#     Col. 8: html1.
#     Col. 9: startValue.
#     Col. 10: endValue.
#     Col. 11: value.
# Line 2:
#     Col. 1: Time results were received.
#     Col. 2: MD5 hash of participant's IP address.
#     Col. 3: Controller name.
#     Col. 4: Item number.
#     Col. 5: Element number.
#     Col. 6: Type.
#     Col. 7: Group.
#     Col. 8: html2.
#     Col. 9: startValue.
#     Col. 10: endValue.
#     Col. 11: value.
1565024361,521996879b294ffadc36c8364e6299f9,MultiSlider,42,0,EveryNot.Some.HowManyBias,12,Have Sue and Marc visited<b> all of </b>the booths so far?,0.00,100.00,16.44
1565024361,521996879b294ffadc36c8364e6299f9,MultiSlider,42,0,EveryNot.Some.HowManyBias,12,Have Sue and Marc visited<b> any of </b>the booths so far?,0.00,100.00,79.44
# The lines below this comment are in groups of 2.
# The formats of the lines in each of these groups are as follows:
#
# Line 1:
#     Col. 1: Time results were received.
#     Col. 2: MD5 hash of participant's IP address.
#     Col. 3: Controller name.
#     Col. 4: Item number.
#     Col. 5: Element number.
#     Col. 6: Type.
#     Col. 7: Group.
#     Col. 8: html2.
#     Col. 9: startValue.
#     Col. 10: endValue.
#     Col. 11: value.
# Line 2:
#     Col. 1: Time results were received.
#     Col. 2: MD5 hash of participant's IP address.
#     Col. 3: Controller name.
#     Col. 4: Item number.
#     Col. 5: Element number.
#     Col. 6: Type.
#     Col. 7: Group.
#     Col. 8: html.
#     Col. 9: startValue.
#     Col. 10: endValue.
#     Col. 11: value.
#     Col. 12: _REACTION_TIME_.
1565024361,521996879b294ffadc36c8364e6299f9,MultiSlider,42,0,EveryNot.Some.HowManyBias,12,Have Sue and Marc visited<b> any of </b>the booths so far?,0.00,100.00,24.78
1565024361,521996879b294ffadc36c8364e6299f9,MultiSlider,42,0,EveryNot.Some.HowManyBias,12,<b>How many</b> of the booths have Sue and Marc visited so far?,0.00,100.00,93.78,41522.00
# Columns below this comment are as follows:
# 1. Time results were received.
# 2. MD5 hash of participant's IP address.
# 3. Controller name.
# 4. Item number.
# 5. Element number.
# 6. Type.
# 7. Group.
# 8. Sentence (or sentence MD5).
1565024361,521996879b294ffadc36c8364e6299f9,MultiSlider,10,0,EveryNot.All.AllBias,1,The whole kindergarten was going on a field trip. The teacher jumped on the bus to see if all the children had been seated.
1565024361,521996879b294ffadc36c8364e6299f9,MultiSlider,10,0,EveryNot.All.AllBias,1,How relevant are the following questions for the story?
# Columns below this comment are as follows:
# 1. Time results were received.
# 2. MD5 hash of participant's IP address.
# 3. Controller name.
# 4. Item number.
# 5. Element number.
# 6. Type.
# 7. Group.
# 8. html1.
# 9. startValue.
# 10. endValue.
# 11. value.
1565024361,521996879b294ffadc36c8364e6299f9,MultiSlider,10,0,EveryNot.All.AllBias,1,<b>How many</b> of the kindergartners got on the bus?,0.00,100.00,6.44
1565024361,521996879b294ffadc36c8364e6299f9,MultiSlider,10,0,EveryNot.All.AllBias,1,<b>How many</b> of the kindergartners got on the bus?,0.00,100.00,32.44
1565024361,521996879b294ffadc36c8364e6299f9,MultiSlider,10,0,EveryNot.All.AllBias,1,<b>How many</b> of the kindergartners got on the bus?,0.00,100.00,57.78
1565024361,521996879b294ffadc36c8364e6299f9,MultiSlider,10,0,EveryNot.All.AllBias,1,<b>How many</b> of the kindergartners got on the bus?,0.00,100.00,50.44
1565024361,521996879b294ffadc36c8364e6299f9,MultiSlider,10,0,EveryNot.All.AllBias,1,<b>How many</b> of the kindergartners got on the bus?,0.00,100.00,57.78
# The lines below this comment are in groups of 2.
# The formats of the lines in each of these groups are as follows:
#
# Line 1:
#     Col. 1: Time results were received.
#     Col. 2: MD5 hash of participant's IP address.
#     Col. 3: Controller name.
#     Col. 4: Item number.
#     Col. 5: Element number.
#     Col. 6: Type.
#     Col. 7: Group.
#     Col. 8: html2.
#     Col. 9: startValue.
#     Col. 10: endValue.
#     Col. 11: value.
# Line 2:
#     Col. 1: Time results were received.
#     Col. 2: MD5 hash of participant's IP address.
#     Col. 3: Controller name.
#     Col. 4: Item number.
#     Col. 5: Element number.
#     Col. 6: Type.
#     Col. 7: Group.
#     Col. 8: html.
#     Col. 9: startValue.
#     Col. 10: endValue.
#     Col. 11: value.
#     Col. 12: _REACTION_TIME_.
1565024361,521996879b294ffadc36c8364e6299f9,MultiSlider,10,0,EveryNot.All.AllBias,1,<b>Did all</b> of the kindergartners get on the bus?,0.00,100.00,97.11
1565024361,521996879b294ffadc36c8364e6299f9,MultiSlider,10,0,EveryNot.All.AllBias,1,<b>Did any</b> of the kindergartners get on the bus?,0.00,100.00,6.44,16833.00
# Columns below this comment are as follows:
# 1. Time results were received.
# 2. MD5 hash of participant's IP address.
# 3. Controller name.
# 4. Item number.
# 5. Element number.
# 6. Type.
# 7. Group.
# 8. Sentence (or sentence MD5).
1565024361,521996879b294ffadc36c8364e6299f9,MultiSlider,19,0,EveryNot.All.AllBias,4,The couple has been planning their wedding for next month. The bride asks her future husband if he has finished writing the invitations.
1565024361,521996879b294ffadc36c8364e6299f9,MultiSlider,19,0,EveryNot.All.AllBias,4,How relevant are the following questions for the story?
# The lines below this comment are in groups of 2.
# The formats of the lines in each of these groups are as follows:
#
# Line 1:
#     Col. 1: Time results were received.
#     Col. 2: MD5 hash of participant's IP address.
#     Col. 3: Controller name.
#     Col. 4: Item number.
#     Col. 5: Element number.
#     Col. 6: Type.
#     Col. 7: Group.
#     Col. 8: html1.
#     Col. 9: startValue.
#     Col. 10: endValue.
#     Col. 11: value.
# Line 2:
#     Col. 1: Time results were received.
#     Col. 2: MD5 hash of participant's IP address.
#     Col. 3: Controller name.
#     Col. 4: Item number.
#     Col. 5: Element number.
#     Col. 6: Type.
#     Col. 7: Group.
#     Col. 8: html2.
#     Col. 9: startValue.
#     Col. 10: endValue.
#     Col. 11: value.
1565024361,521996879b294ffadc36c8364e6299f9,MultiSlider,19,0,EveryNot.All.AllBias,4,<b>How many</b> of the wedding invitations have been written?,0.00,100.00,67.44
1565024361,521996879b294ffadc36c8364e6299f9,MultiSlider,19,0,EveryNot.All.AllBias,4,<b>Have all</b> of the wedding invitations been written?,0.00,100.00,20.78
# Columns below this comment are as follows:
# 1. Time results were received.
# 2. MD5 hash of participant's IP address.
# 3. Controller name.
# 4. Item number.
# 5. Element number.
# 6. Type.
# 7. Group.
# 8. html2.
# 9. startValue.
# 10. endValue.
# 11. value.
1565024361,521996879b294ffadc36c8364e6299f9,MultiSlider,19,0,EveryNot.All.AllBias,4,<b>Have all</b> of the wedding invitations been written?,0.00,100.00,32.11
1565024361,521996879b294ffadc36c8364e6299f9,MultiSlider,19,0,EveryNot.All.AllBias,4,<b>Have all</b> of the wedding invitations been written?,0.00,100.00,71.78
# The lines below this comment are in groups of 2.
# The formats of the lines in each of these groups are as follows:
#
# Line 1:
#     Col. 1: Time results were received.
#     Col. 2: MD5 hash of participant's IP address.
#     Col. 3: Controller name.
#     Col. 4: Item number.
#     Col. 5: Element number.
#     Col. 6: Type.
#     Col. 7: Group.
#     Col. 8: html.
#     Col. 9: startValue.
#     Col. 10: endValue.
#     Col. 11: value.
#     Col. 12: _REACTION_TIME_.
# Line 2:
#     Col. 1: Time results were received.
#     Col. 2: MD5 hash of participant's IP address.
#     Col. 3: Controller name.
#     Col. 4: Item number.
#     Col. 5: Element number.
#     Col. 6: Type.
#     Col. 7: Group.
#     Col. 8: Sentence (or sentence MD5).
1565024361,521996879b294ffadc36c8364e6299f9,MultiSlider,19,0,EveryNot.All.AllBias,4,<b>Have any</b> of the wedding invitations been written?,0.00,100.00,10.44,15368.00
1565024361,521996879b294ffadc36c8364e6299f9,MultiSlider,51,0,EveryNot.Some.HowManyBias,15,Barney has been submitting recipes to a famous cooking website for some time now. His partner asked how successful his submissions had been.
# The lines below this comment are in groups of 2.
# The formats of the lines in each of these groups are as follows:
#
# Line 1:
#     Col. 1: Time results were received.
#     Col. 2: MD5 hash of participant's IP address.
#     Col. 3: Controller name.
#     Col. 4: Item number.
#     Col. 5: Element number.
#     Col. 6: Type.
#     Col. 7: Group.
#     Col. 8: Sentence (or sentence MD5).
# Line 2:
#     Col. 1: Time results were received.
#     Col. 2: MD5 hash of participant's IP address.
#     Col. 3: Controller name.
#     Col. 4: Item number.
#     Col. 5: Element number.
#     Col. 6: Type.
#     Col. 7: Group.
#     Col. 8: html1.
#     Col. 9: startValue.
#     Col. 10: endValue.
#     Col. 11: value.
1565024361,521996879b294ffadc36c8364e6299f9,MultiSlider,51,0,EveryNot.Some.HowManyBias,15,How relevant are the following questions for the story?
1565024361,521996879b294ffadc36c8364e6299f9,MultiSlider,51,0,EveryNot.Some.HowManyBias,15,<b>Have all</b> of Barney's submissions been published?,0.00,100.00,77.11
# The lines below this comment are in groups of 2.
# The formats of the lines in each of these groups are as follows:
#
# Line 1:
#     Col. 1: Time results were received.
#     Col. 2: MD5 hash of participant's IP address.
#     Col. 3: Controller name.
#     Col. 4: Item number.
#     Col. 5: Element number.
#     Col. 6: Type.
#     Col. 7: Group.
#     Col. 8: html1.
#     Col. 9: startValue.
#     Col. 10: endValue.
#     Col. 11: value.
# Line 2:
#     Col. 1: Time results were received.
#     Col. 2: MD5 hash of participant's IP address.
#     Col. 3: Controller name.
#     Col. 4: Item number.
#     Col. 5: Element number.
#     Col. 6: Type.
#     Col. 7: Group.
#     Col. 8: html2.
#     Col. 9: startValue.
#     Col. 10: endValue.
#     Col. 11: value.
1565024361,521996879b294ffadc36c8364e6299f9,MultiSlider,51,0,EveryNot.Some.HowManyBias,15,<b>Have all</b> of Barney's submissions been published?,0.00,100.00,25.11
1565024361,521996879b294ffadc36c8364e6299f9,MultiSlider,51,0,EveryNot.Some.HowManyBias,15,<b>Have any</b> of Barney's submissions been published?,0.00,100.00,94.44
# The lines below this comment are in groups of 2.
# The formats of the lines in each of these groups are as follows:
#
# Line 1:
#     Col. 1: Time results were received.
#     Col. 2: MD5 hash of participant's IP address.
#     Col. 3: Controller name.
#     Col. 4: Item number.
#     Col. 5: Element number.
#     Col. 6: Type.
#     Col. 7: Group.
#     Col. 8: html.
#     Col. 9: startValue.
#     Col. 10: endValue.
#     Col. 11: value.
#     Col. 12: _REACTION_TIME_.
# Line 2:
#     Col. 1: Time results were received.
#     Col. 2: MD5 hash of participant's IP address.
#     Col. 3: Controller name.
#     Col. 4: Item number.
#     Col. 5: Element number.
#     Col. 6: Type.
#     Col. 7: Group.
#     Col. 8: Sentence (or sentence MD5).
1565024361,521996879b294ffadc36c8364e6299f9,MultiSlider,51,0,EveryNot.Some.HowManyBias,15,<b>How many</b> of Barney's submissions have been published?,0.00,100.00,86.78,30433.00
1565024361,521996879b294ffadc36c8364e6299f9,MultiSlider,55,0,EveryNot.Some.AllBias,16,A tech start-up is facing some financial issues. During an HR meeting%2C the board debated whether they had to lay off all of their employees.
# The lines below this comment are in groups of 2.
# The formats of the lines in each of these groups are as follows:
#
# Line 1:
#     Col. 1: Time results were received.
#     Col. 2: MD5 hash of participant's IP address.
#     Col. 3: Controller name.
#     Col. 4: Item number.
#     Col. 5: Element number.
#     Col. 6: Type.
#     Col. 7: Group.
#     Col. 8: Sentence (or sentence MD5).
# Line 2:
#     Col. 1: Time results were received.
#     Col. 2: MD5 hash of participant's IP address.
#     Col. 3: Controller name.
#     Col. 4: Item number.
#     Col. 5: Element number.
#     Col. 6: Type.
#     Col. 7: Group.
#     Col. 8: html1.
#     Col. 9: startValue.
#     Col. 10: endValue.
#     Col. 11: value.
1565024361,521996879b294ffadc36c8364e6299f9,MultiSlider,55,0,EveryNot.Some.AllBias,16,How relevant are the following questions for the story?
1565024361,521996879b294ffadc36c8364e6299f9,MultiSlider,55,0,EveryNot.Some.AllBias,16,<b>How many</b> of the employees will be fired?,0.00,100.00,76.78
# The lines below this comment are in groups of 2.
# The formats of the lines in each of these groups are as follows:
#
# Line 1:
#     Col. 1: Time results were received.
#     Col. 2: MD5 hash of participant's IP address.
#     Col. 3: Controller name.
#     Col. 4: Item number.
#     Col. 5: Element number.
#     Col. 6: Type.
#     Col. 7: Group.
#     Col. 8: html2.
#     Col. 9: startValue.
#     Col. 10: endValue.
#     Col. 11: value.
# Line 2:
#     Col. 1: Time results were received.
#     Col. 2: MD5 hash of participant's IP address.
#     Col. 3: Controller name.
#     Col. 4: Item number.
#     Col. 5: Element number.
#     Col. 6: Type.
#     Col. 7: Group.
#     Col. 8: html.
#     Col. 9: startValue.
#     Col. 10: endValue.
#     Col. 11: value.
#     Col. 12: _REACTION_TIME_.
1565024361,521996879b294ffadc36c8364e6299f9,MultiSlider,55,0,EveryNot.Some.AllBias,16,Will<b> all of </b>of the employees be fired?,0.00,100.00,68.11
1565024361,521996879b294ffadc36c8364e6299f9,MultiSlider,55,0,EveryNot.Some.AllBias,16,Will<b> any of </b>of the employees be fired?,0.00,100.00,98.44,18753.00
# Columns below this comment are as follows:
# 1. Time results were received.
# 2. MD5 hash of participant's IP address.
# 3. Controller name.
# 4. Item number.
# 5. Element number.
# 6. Type.
# 7. Group.
# 8. Field name.
# 9. Field value.
1565024361,521996879b294ffadc36c8364e6299f9,Form,8,0,end_experiment,NULL,_REACTION_TIME_,1879
#
# Results on Monday August 05 2019 17:03:38 UTC.
# USER AGENT: Mozilla/5.0 (iPhone; CPU iPhone OS 13_0 like Mac OS X) AppleWebKit/605.1.15 (KHTML, like Gecko) Version/13.0 Mobile/15E148 Safari/604.1
# Design number was non-random = 4
#
# Columns below this comment are as follows:
# 1. Time results were received.
# 2. MD5 hash of participant's IP address.
# 3. Controller name.
# 4. Item number.
# 5. Element number.
# 6. Type.
# 7. Group.
# 8. Field name.
# 9. Field value.
1565024618,84f95322b6905e31b3f0ac94f0648afd,Form,7,0,consent,NULL,consent,yes
1565024618,84f95322b6905e31b3f0ac94f0648afd,Form,7,0,consent,NULL,_REACTION_TIME_,5437
1565024618,84f95322b6905e31b3f0ac94f0648afd,Form,1,0,intro,NULL,age,31
1565024618,84f95322b6905e31b3f0ac94f0648afd,Form,1,0,intro,NULL,natlang,English
1565024618,84f95322b6905e31b3f0ac94f0648afd,Form,1,0,intro,NULL,otherlang,No
1565024618,84f95322b6905e31b3f0ac94f0648afd,Form,1,0,intro,NULL,Prolific,5c61dc9a6465e70001d49ef7
1565024618,84f95322b6905e31b3f0ac94f0648afd,Form,1,0,intro,NULL,gender,female
1565024618,84f95322b6905e31b3f0ac94f0648afd,Form,1,0,intro,NULL,_REACTION_TIME_,51311
1565024618,84f95322b6905e31b3f0ac94f0648afd,Form,2,0,intro1,NULL,_REACTION_TIME_,7075
1565024618,84f95322b6905e31b3f0ac94f0648afd,Form,3,0,intro2,NULL,_REACTION_TIME_,29621
1565024618,84f95322b6905e31b3f0ac94f0648afd,Form,4,0,intro3,NULL,_REACTION_TIME_,8550
# Columns below this comment are as follows:
# 1. Time results were received.
# 2. MD5 hash of participant's IP address.
# 3. Controller name.
# 4. Item number.
# 5. Element number.
# 6. Type.
# 7. Group.
# 8. Sentence (or sentence MD5).
1565024618,84f95322b6905e31b3f0ac94f0648afd,MultiSlider,51,0,EveryNot.Some.HowManyBias,15,Barney has been submitting recipes to a famous cooking website for some time now. His partner asked how successful his submissions had been.
1565024618,84f95322b6905e31b3f0ac94f0648afd,MultiSlider,51,0,EveryNot.Some.HowManyBias,15,How relevant are the following questions for the story?
# Columns below this comment are as follows:
# 1. Time results were received.
# 2. MD5 hash of participant's IP address.
# 3. Controller name.
# 4. Item number.
# 5. Element number.
# 6. Type.
# 7. Group.
# 8. html1.
# 9. startValue.
# 10. endValue.
# 11. value.
1565024618,84f95322b6905e31b3f0ac94f0648afd,MultiSlider,51,0,EveryNot.Some.HowManyBias,15,<b>Have all</b> of Barney's submissions been published?,0.00,100.00,0.00
1565024618,84f95322b6905e31b3f0ac94f0648afd,MultiSlider,51,0,EveryNot.Some.HowManyBias,15,<b>Have all</b> of Barney's submissions been published?,0.00,100.00,0.00
1565024618,84f95322b6905e31b3f0ac94f0648afd,MultiSlider,51,0,EveryNot.Some.HowManyBias,15,<b>Have all</b> of Barney's submissions been published?,0.00,100.00,0.00
1565024618,84f95322b6905e31b3f0ac94f0648afd,MultiSlider,51,0,EveryNot.Some.HowManyBias,15,<b>Have all</b> of Barney's submissions been published?,0.00,100.00,0.00
1565024618,84f95322b6905e31b3f0ac94f0648afd,MultiSlider,51,0,EveryNot.Some.HowManyBias,15,<b>Have all</b> of Barney's submissions been published?,0.00,100.00,0.00
1565024618,84f95322b6905e31b3f0ac94f0648afd,MultiSlider,51,0,EveryNot.Some.HowManyBias,15,<b>Have all</b> of Barney's submissions been published?,0.00,100.00,0.00
1565024618,84f95322b6905e31b3f0ac94f0648afd,MultiSlider,51,0,EveryNot.Some.HowManyBias,15,<b>Have all</b> of Barney's submissions been published?,0.00,100.00,0.00
1565024618,84f95322b6905e31b3f0ac94f0648afd,MultiSlider,51,0,EveryNot.Some.HowManyBias,15,<b>Have all</b> of Barney's submissions been published?,0.00,100.00,0.00
1565024618,84f95322b6905e31b3f0ac94f0648afd,MultiSlider,51,0,EveryNot.Some.HowManyBias,15,<b>Have all</b> of Barney's submissions been published?,0.00,100.00,0.00
1565024618,84f95322b6905e31b3f0ac94f0648afd,MultiSlider,51,0,EveryNot.Some.HowManyBias,15,<b>Have all</b> of Barney's submissions been published?,0.00,100.00,0.00
1565024618,84f95322b6905e31b3f0ac94f0648afd,MultiSlider,51,0,EveryNot.Some.HowManyBias,15,<b>Have all</b> of Barney's submissions been published?,0.00,100.00,0.00
1565024618,84f95322b6905e31b3f0ac94f0648afd,MultiSlider,51,0,EveryNot.Some.HowManyBias,15,<b>Have all</b> of Barney's submissions been published?,0.00,100.00,0.00
1565024618,84f95322b6905e31b3f0ac94f0648afd,MultiSlider,51,0,EveryNot.Some.HowManyBias,15,<b>Have all</b> of Barney's submissions been published?,0.00,100.00,0.00
1565024618,84f95322b6905e31b3f0ac94f0648afd,MultiSlider,51,0,EveryNot.Some.HowManyBias,15,<b>Have all</b> of Barney's submissions been published?,0.00,100.00,69.17
1565024618,84f95322b6905e31b3f0ac94f0648afd,MultiSlider,51,0,EveryNot.Some.HowManyBias,15,<b>Have all</b> of Barney's submissions been published?,0.00,100.00,57.50
1565024618,84f95322b6905e31b3f0ac94f0648afd,MultiSlider,51,0,EveryNot.Some.HowManyBias,15,<b>Have all</b> of Barney's submissions been published?,0.00,100.00,95.50
1565024618,84f95322b6905e31b3f0ac94f0648afd,MultiSlider,51,0,EveryNot.Some.HowManyBias,15,<b>Have all</b> of Barney's submissions been published?,0.00,100.00,62.17
1565024618,84f95322b6905e31b3f0ac94f0648afd,MultiSlider,51,0,EveryNot.Some.HowManyBias,15,<b>Have all</b> of Barney's submissions been published?,0.00,100.00,30.17
1565024618,84f95322b6905e31b3f0ac94f0648afd,MultiSlider,51,0,EveryNot.Some.HowManyBias,15,<b>Have all</b> of Barney's submissions been published?,0.00,100.00,61.83
1565024618,84f95322b6905e31b3f0ac94f0648afd,MultiSlider,51,0,EveryNot.Some.HowManyBias,15,<b>Have all</b> of Barney's submissions been published?,0.00,100.00,93.17
1565024618,84f95322b6905e31b3f0ac94f0648afd,MultiSlider,51,0,EveryNot.Some.HowManyBias,15,<b>Have all</b> of Barney's submissions been published?,0.00,100.00,43.83
# Columns below this comment are as follows:
# 1. Time results were received.
# 2. MD5 hash of participant's IP address.
# 3. Controller name.
# 4. Item number.
# 5. Element number.
# 6. Type.
# 7. Group.
# 8. html2.
# 9. startValue.
# 10. endValue.
# 11. value.
1565024618,84f95322b6905e31b3f0ac94f0648afd,MultiSlider,51,0,EveryNot.Some.HowManyBias,15,<b>Have any</b> of Barney's submissions been published?,0.00,100.00,34.50
1565024618,84f95322b6905e31b3f0ac94f0648afd,MultiSlider,51,0,EveryNot.Some.HowManyBias,15,<b>Have any</b> of Barney's submissions been published?,0.00,100.00,32.17
1565024618,84f95322b6905e31b3f0ac94f0648afd,MultiSlider,51,0,EveryNot.Some.HowManyBias,15,<b>Have any</b> of Barney's submissions been published?,0.00,100.00,20.50
1565024618,84f95322b6905e31b3f0ac94f0648afd,MultiSlider,51,0,EveryNot.Some.HowManyBias,15,<b>Have any</b> of Barney's submissions been published?,0.00,100.00,0.00
1565024618,84f95322b6905e31b3f0ac94f0648afd,MultiSlider,51,0,EveryNot.Some.HowManyBias,15,<b>Have any</b> of Barney's submissions been published?,0.00,100.00,0.00
1565024618,84f95322b6905e31b3f0ac94f0648afd,MultiSlider,51,0,EveryNot.Some.HowManyBias,15,<b>Have any</b> of Barney's submissions been published?,0.00,100.00,0.00
1565024618,84f95322b6905e31b3f0ac94f0648afd,MultiSlider,51,0,EveryNot.Some.HowManyBias,15,<b>Have any</b> of Barney's submissions been published?,0.00,100.00,0.00
1565024618,84f95322b6905e31b3f0ac94f0648afd,MultiSlider,51,0,EveryNot.Some.HowManyBias,15,<b>Have any</b> of Barney's submissions been published?,0.00,100.00,0.00
1565024618,84f95322b6905e31b3f0ac94f0648afd,MultiSlider,51,0,EveryNot.Some.HowManyBias,15,<b>Have any</b> of Barney's submissions been published?,0.00,100.00,0.00
1565024618,84f95322b6905e31b3f0ac94f0648afd,MultiSlider,51,0,EveryNot.Some.HowManyBias,15,<b>Have any</b> of Barney's submissions been published?,0.00,100.00,0.00
1565024618,84f95322b6905e31b3f0ac94f0648afd,MultiSlider,51,0,EveryNot.Some.HowManyBias,15,<b>Have any</b> of Barney's submissions been published?,0.00,100.00,0.00
1565024618,84f95322b6905e31b3f0ac94f0648afd,MultiSlider,51,0,EveryNot.Some.HowManyBias,15,<b>Have any</b> of Barney's submissions been published?,0.00,100.00,0.00
1565024618,84f95322b6905e31b3f0ac94f0648afd,MultiSlider,51,0,EveryNot.Some.HowManyBias,15,<b>Have any</b> of Barney's submissions been published?,0.00,100.00,0.00
1565024618,84f95322b6905e31b3f0ac94f0648afd,MultiSlider,51,0,EveryNot.Some.HowManyBias,15,<b>Have any</b> of Barney's submissions been published?,0.00,100.00,0.00
1565024618,84f95322b6905e31b3f0ac94f0648afd,MultiSlider,51,0,EveryNot.Some.HowManyBias,15,<b>Have any</b> of Barney's submissions been published?,0.00,100.00,0.00
1565024618,84f95322b6905e31b3f0ac94f0648afd,MultiSlider,51,0,EveryNot.Some.HowManyBias,15,<b>Have any</b> of Barney's submissions been published?,0.00,100.00,0.00
1565024618,84f95322b6905e31b3f0ac94f0648afd,MultiSlider,51,0,EveryNot.Some.HowManyBias,15,<b>Have any</b> of Barney's submissions been published?,0.00,100.00,0.00
1565024618,84f95322b6905e31b3f0ac94f0648afd,MultiSlider,51,0,EveryNot.Some.HowManyBias,15,<b>Have any</b> of Barney's submissions been published?,0.00,100.00,0.00
1565024618,84f95322b6905e31b3f0ac94f0648afd,MultiSlider,51,0,EveryNot.Some.HowManyBias,15,<b>Have any</b> of Barney's submissions been published?,0.00,100.00,0.00
1565024618,84f95322b6905e31b3f0ac94f0648afd,MultiSlider,51,0,EveryNot.Some.HowManyBias,15,<b>Have any</b> of Barney's submissions been published?,0.00,100.00,0.00
1565024618,84f95322b6905e31b3f0ac94f0648afd,MultiSlider,51,0,EveryNot.Some.HowManyBias,15,<b>Have any</b> of Barney's submissions been published?,0.00,100.00,0.00
1565024618,84f95322b6905e31b3f0ac94f0648afd,MultiSlider,51,0,EveryNot.Some.HowManyBias,15,<b>Have any</b> of Barney's submissions been published?,0.00,100.00,0.00
1565024618,84f95322b6905e31b3f0ac94f0648afd,MultiSlider,51,0,EveryNot.Some.HowManyBias,15,<b>Have any</b> of Barney's submissions been published?,0.00,100.00,0.00
1565024618,84f95322b6905e31b3f0ac94f0648afd,MultiSlider,51,0,EveryNot.Some.HowManyBias,15,<b>Have any</b> of Barney's submissions been published?,0.00,100.00,0.00
1565024618,84f95322b6905e31b3f0ac94f0648afd,MultiSlider,51,0,EveryNot.Some.HowManyBias,15,<b>Have any</b> of Barney's submissions been published?,0.00,100.00,90.50
1565024618,84f95322b6905e31b3f0ac94f0648afd,MultiSlider,51,0,EveryNot.Some.HowManyBias,15,<b>Have any</b> of Barney's submissions been published?,0.00,100.00,98.50
# The lines below this comment are in groups of 2.
# The formats of the lines in each of these groups are as follows:
#
# Line 1:
#     Col. 1: Time results were received.
#     Col. 2: MD5 hash of participant's IP address.
#     Col. 3: Controller name.
#     Col. 4: Item number.
#     Col. 5: Element number.
#     Col. 6: Type.
#     Col. 7: Group.
#     Col. 8: html.
#     Col. 9: startValue.
#     Col. 10: endValue.
#     Col. 11: value.
#     Col. 12: _REACTION_TIME_.
# Line 2:
#     Col. 1: Time results were received.
#     Col. 2: MD5 hash of participant's IP address.
#     Col. 3: Controller name.
#     Col. 4: Item number.
#     Col. 5: Element number.
#     Col. 6: Type.
#     Col. 7: Group.
#     Col. 8: Sentence (or sentence MD5).
1565024618,84f95322b6905e31b3f0ac94f0648afd,MultiSlider,51,0,EveryNot.Some.HowManyBias,15,<b>How many</b> of Barney's submissions have been published?,0.00,100.00,98.50,119955.00
1565024618,84f95322b6905e31b3f0ac94f0648afd,MultiSlider,73,0,EveryNot.None.AllBias,22,The unsuccessful broker has made some risky investments in the stock market. He nervously stared at the monitor%2C because his house may be foreclosed unless all of his investments work out.
# The lines below this comment are in groups of 2.
# The formats of the lines in each of these groups are as follows:
#
# Line 1:
#     Col. 1: Time results were received.
#     Col. 2: MD5 hash of participant's IP address.
#     Col. 3: Controller name.
#     Col. 4: Item number.
#     Col. 5: Element number.
#     Col. 6: Type.
#     Col. 7: Group.
#     Col. 8: Sentence (or sentence MD5).
# Line 2:
#     Col. 1: Time results were received.
#     Col. 2: MD5 hash of participant's IP address.
#     Col. 3: Controller name.
#     Col. 4: Item number.
#     Col. 5: Element number.
#     Col. 6: Type.
#     Col. 7: Group.
#     Col. 8: html1.
#     Col. 9: startValue.
#     Col. 10: endValue.
#     Col. 11: value.
1565024618,84f95322b6905e31b3f0ac94f0648afd,MultiSlider,73,0,EveryNot.None.AllBias,22,How relevant are the following questions for the story?
1565024618,84f95322b6905e31b3f0ac94f0648afd,MultiSlider,73,0,EveryNot.None.AllBias,22,<b>How many</b> of the investment paid off?,0.00,100.00,91.83
# Columns below this comment are as follows:
# 1. Time results were received.
# 2. MD5 hash of participant's IP address.
# 3. Controller name.
# 4. Item number.
# 5. Element number.
# 6. Type.
# 7. Group.
# 8. html1.
# 9. startValue.
# 10. endValue.
# 11. value.
1565024618,84f95322b6905e31b3f0ac94f0648afd,MultiSlider,73,0,EveryNot.None.AllBias,22,<b>How many</b> of the investment paid off?,0.00,100.00,99.17
1565024618,84f95322b6905e31b3f0ac94f0648afd,MultiSlider,73,0,EveryNot.None.AllBias,22,<b>How many</b> of the investment paid off?,0.00,100.00,1.50
1565024618,84f95322b6905e31b3f0ac94f0648afd,MultiSlider,73,0,EveryNot.None.AllBias,22,<b>How many</b> of the investment paid off?,0.00,100.00,43.17
# Columns below this comment are as follows:
# 1. Time results were received.
# 2. MD5 hash of participant's IP address.
# 3. Controller name.
# 4. Item number.
# 5. Element number.
# 6. Type.
# 7. Group.
# 8. html2.
# 9. startValue.
# 10. endValue.
# 11. value.
1565024618,84f95322b6905e31b3f0ac94f0648afd,MultiSlider,73,0,EveryNot.None.AllBias,22,<b>Did all</b> of the investment pay off?,0.00,100.00,90.17
1565024618,84f95322b6905e31b3f0ac94f0648afd,MultiSlider,73,0,EveryNot.None.AllBias,22,<b>Did all</b> of the investment pay off?,0.00,100.00,4.83
1565024618,84f95322b6905e31b3f0ac94f0648afd,MultiSlider,73,0,EveryNot.None.AllBias,22,<b>Did all</b> of the investment pay off?,0.00,100.00,96.17
# The lines below this comment are in groups of 2.
# The formats of the lines in each of these groups are as follows:
#
# Line 1:
#     Col. 1: Time results were received.
#     Col. 2: MD5 hash of participant's IP address.
#     Col. 3: Controller name.
#     Col. 4: Item number.
#     Col. 5: Element number.
#     Col. 6: Type.
#     Col. 7: Group.
#     Col. 8: html.
#     Col. 9: startValue.
#     Col. 10: endValue.
#     Col. 11: value.
#     Col. 12: _REACTION_TIME_.
# Line 2:
#     Col. 1: Time results were received.
#     Col. 2: MD5 hash of participant's IP address.
#     Col. 3: Controller name.
#     Col. 4: Item number.
#     Col. 5: Element number.
#     Col. 6: Type.
#     Col. 7: Group.
#     Col. 8: Sentence (or sentence MD5).
1565024618,84f95322b6905e31b3f0ac94f0648afd,MultiSlider,73,0,EveryNot.None.AllBias,22,<b>Did any</b> of the investment pay off?,0.00,100.00,3.83,80050.00
1565024618,84f95322b6905e31b3f0ac94f0648afd,MultiSlider,42,0,EveryNot.Some.HowManyBias,12,Sue and Marc went to a two-day science exhibition. On the first day%2C the organizers approached them and asked about the number of booths they had checked off the map so far.
# The lines below this comment are in groups of 2.
# The formats of the lines in each of these groups are as follows:
#
# Line 1:
#     Col. 1: Time results were received.
#     Col. 2: MD5 hash of participant's IP address.
#     Col. 3: Controller name.
#     Col. 4: Item number.
#     Col. 5: Element number.
#     Col. 6: Type.
#     Col. 7: Group.
#     Col. 8: Sentence (or sentence MD5).
# Line 2:
#     Col. 1: Time results were received.
#     Col. 2: MD5 hash of participant's IP address.
#     Col. 3: Controller name.
#     Col. 4: Item number.
#     Col. 5: Element number.
#     Col. 6: Type.
#     Col. 7: Group.
#     Col. 8: html1.
#     Col. 9: startValue.
#     Col. 10: endValue.
#     Col. 11: value.
1565024618,84f95322b6905e31b3f0ac94f0648afd,MultiSlider,42,0,EveryNot.Some.HowManyBias,12,How relevant are the following questions for the story?
1565024618,84f95322b6905e31b3f0ac94f0648afd,MultiSlider,42,0,EveryNot.Some.HowManyBias,12,Have Sue and Marc visited<b> all of </b>the booths so far?,0.00,100.00,27.50
# The lines below this comment are in groups of 2.
# The formats of the lines in each of these groups are as follows:
#
# Line 1:
#     Col. 1: Time results were received.
#     Col. 2: MD5 hash of participant's IP address.
#     Col. 3: Controller name.
#     Col. 4: Item number.
#     Col. 5: Element number.
#     Col. 6: Type.
#     Col. 7: Group.
#     Col. 8: html2.
#     Col. 9: startValue.
#     Col. 10: endValue.
#     Col. 11: value.
# Line 2:
#     Col. 1: Time results were received.
#     Col. 2: MD5 hash of participant's IP address.
#     Col. 3: Controller name.
#     Col. 4: Item number.
#     Col. 5: Element number.
#     Col. 6: Type.
#     Col. 7: Group.
#     Col. 8: html.
#     Col. 9: startValue.
#     Col. 10: endValue.
#     Col. 11: value.
#     Col. 12: _REACTION_TIME_.
1565024618,84f95322b6905e31b3f0ac94f0648afd,MultiSlider,42,0,EveryNot.Some.HowManyBias,12,Have Sue and Marc visited<b> any of </b>the booths so far?,0.00,100.00,0.50
1565024618,84f95322b6905e31b3f0ac94f0648afd,MultiSlider,42,0,EveryNot.Some.HowManyBias,12,<b>How many</b> of the booths have Sue and Marc visited so far?,0.00,100.00,96.83,45794.00
# Columns below this comment are as follows:
# 1. Time results were received.
# 2. MD5 hash of participant's IP address.
# 3. Controller name.
# 4. Item number.
# 5. Element number.
# 6. Type.
# 7. Group.
# 8. Sentence (or sentence MD5).
