#
# Results on Monday August 05 2019 17:21:53 UTC.
# USER AGENT: Mozilla/5.0 (Windows NT 10.0; Win64; x64) AppleWebKit/537.36 (KHTML, like Gecko) Chrome/75.0.3770.142 Safari/537.36
# Design number was non-random = 0
#
# Columns below this comment are as follows:
# 1. Time results were received.
# 2. MD5 hash of participant's IP address.
# 3. Controller name.
# 4. Item number.
# 5. Element number.
# 6. Type.
# 7. Group.
# 8. Field name.
# 9. Field value.
1565025714,5bdc0c642bf6d60eaf9ed00db27ce92d,Form,7,0,consent,NULL,consent,yes
1565025714,5bdc0c642bf6d60eaf9ed00db27ce92d,Form,7,0,consent,NULL,_REACTION_TIME_,2094
1565025714,5bdc0c642bf6d60eaf9ed00db27ce92d,Form,1,0,intro,NULL,age,1
1565025714,5bdc0c642bf6d60eaf9ed00db27ce92d,Form,1,0,intro,NULL,natlang,l
1565025714,5bdc0c642bf6d60eaf9ed00db27ce92d,Form,1,0,intro,NULL,otherlang,l
1565025714,5bdc0c642bf6d60eaf9ed00db27ce92d,Form,1,0,intro,NULL,Prolific,l
1565025714,5bdc0c642bf6d60eaf9ed00db27ce92d,Form,1,0,intro,NULL,gender,male
1565025714,5bdc0c642bf6d60eaf9ed00db27ce92d,Form,1,0,intro,NULL,_REACTION_TIME_,5370
1565025714,5bdc0c642bf6d60eaf9ed00db27ce92d,Form,2,0,intro1,NULL,_REACTION_TIME_,658
1565025714,5bdc0c642bf6d60eaf9ed00db27ce92d,Form,3,0,intro2,NULL,_REACTION_TIME_,428
1565025714,5bdc0c642bf6d60eaf9ed00db27ce92d,Form,4,0,intro3,NULL,_REACTION_TIME_,422
# Columns below this comment are as follows:
# 1. Time results were received.
# 2. MD5 hash of participant's IP address.
# 3. Controller name.
# 4. Item number.
# 5. Element number.
# 6. Type.
# 7. Group.
# 8. html.
# 9. startValue.
# 10. endValue.
# 11. value.
# 12. _REACTION_TIME_.
1565025714,5bdc0c642bf6d60eaf9ed00db27ce92d,MultiSlider,63,0,EveryNot.None.HowManyBias,19,<b>Were all</b> of the records broken in the end?,0.00,100.00,50.00,1533.00
1565025714,5bdc0c642bf6d60eaf9ed00db27ce92d,MultiSlider,13,0,EveryNot.All.AllBias,2,<b>How many</b> of the six deer survived?,0.00,100.00,50.00,278.00
1565025714,5bdc0c642bf6d60eaf9ed00db27ce92d,MultiSlider,36,0,EveryNot.Some.HowManyBias,10,Did the kids answer <b> all of </b>the questions correctly?,0.00,100.00,50.00,145.00
1565025714,5bdc0c642bf6d60eaf9ed00db27ce92d,MultiSlider,17,0,EveryNot.All.NoneBias,3,<b>Were any</b> of the student essays graded?,0.00,100.00,50.00,208.00
1565025714,5bdc0c642bf6d60eaf9ed00db27ce92d,MultiSlider,72,0,EveryNot.None.HowManyBias,22,<b>Did all</b> of the investment pay off?,0.00,100.00,50.00,1217.00
1565025714,5bdc0c642bf6d60eaf9ed00db27ce92d,MultiSlider,35,0,EveryNot.Some.NoneBias,9,<b>Did any</b> of the students pass the exam?,0.00,100.00,50.00,707.00
1565025714,5bdc0c642bf6d60eaf9ed00db27ce92d,MultiSlider,44,0,EveryNot.Some.NoneBias,12,Have Sue and Marc visited<b> any of </b>the booths so far?,0.00,100.00,50.00,211.00
1565025714,5bdc0c642bf6d60eaf9ed00db27ce92d,MultiSlider,27,0,EveryNot.All.HowManyBias,7,<b>Have all</b> of the infants been changed?,0.00,100.00,50.00,200.00
1565025714,5bdc0c642bf6d60eaf9ed00db27ce92d,MultiSlider,40,0,EveryNot.Some.AllBias,11,<b>How many</b> of the sales were closed in the end?,0.00,100.00,50.00,113.00
1565025714,5bdc0c642bf6d60eaf9ed00db27ce92d,MultiSlider,80,0,EveryNot.None.NoneBias,24,<b>Were any</b> of the appointments cancelled?,0.00,100.00,50.00,179.00
1565025714,5bdc0c642bf6d60eaf9ed00db27ce92d,MultiSlider,54,0,EveryNot.Some.HowManyBias,16,Will<b> all of </b>of the employees be fired?,0.00,100.00,50.00,169.00
1565025714,5bdc0c642bf6d60eaf9ed00db27ce92d,MultiSlider,76,0,EveryNot.None.AllBias,23,<b>How many</b> of the operations were successful?,0.00,100.00,50.00,227.00
1565025714,5bdc0c642bf6d60eaf9ed00db27ce92d,MultiSlider,71,0,EveryNot.None.NoneBias,21,Did Julia fail<b> any of </b>the classes?,0.00,100.00,50.00,274.00
1565025714,5bdc0c642bf6d60eaf9ed00db27ce92d,MultiSlider,67,0,EveryNot.None.AllBias,20,<b>How many</b> of the medals did she win?,0.00,100.00,50.00,155.00
1565025714,5bdc0c642bf6d60eaf9ed00db27ce92d,MultiSlider,45,0,EveryNot.Some.HowManyBias,13,<b>Have all</b> of the books been cataloged?,0.00,100.00,50.00,163.00
1565025714,5bdc0c642bf6d60eaf9ed00db27ce92d,MultiSlider,22,0,EveryNot.All.AllBias,5,<b>How many</b> of the boxes have been opened?,0.00,100.00,50.00,148.00
1565025714,5bdc0c642bf6d60eaf9ed00db27ce92d,MultiSlider,9,0,EveryNot.All.HowManyBias,1,<b>Did all</b> of the kindergartners get on the bus?,0.00,100.00,50.00,235.00
1565025714,5bdc0c642bf6d60eaf9ed00db27ce92d,MultiSlider,53,0,EveryNot.Some.NoneBias,15,<b>Have any</b> of Barney's submissions been published?,0.00,100.00,50.00,195.00
1565025714,5bdc0c642bf6d60eaf9ed00db27ce92d,MultiSlider,18,0,EveryNot.All.HowManyBias,4,<b>Have all</b> of the wedding invitations been written?,0.00,100.00,50.00,170.00
1565025714,5bdc0c642bf6d60eaf9ed00db27ce92d,MultiSlider,58,0,EveryNot.None.AllBias,17,<b>How many</b> of the cases have been solved?,0.00,100.00,50.00,257.00
1565025714,5bdc0c642bf6d60eaf9ed00db27ce92d,MultiSlider,62,0,EveryNot.None.NoneBias,18,<b>Have any</b> of the sheep been sold?,0.00,100.00,50.00,161.00
1565025714,5bdc0c642bf6d60eaf9ed00db27ce92d,MultiSlider,26,0,EveryNot.All.NoneBias,6,<b>Have any</b> of the new songs been demoed?,0.00,100.00,50.00,243.00
1565025714,5bdc0c642bf6d60eaf9ed00db27ce92d,MultiSlider,49,0,EveryNot.Some.AllBias,14,<b>How many</b> of the Major League Gaming tournament has Roy been invited to?,0.00,100.00,50.00,1026.00
1565025714,5bdc0c642bf6d60eaf9ed00db27ce92d,MultiSlider,31,0,EveryNot.All.AllBias,8,<b>How many</b> of the guests were dressed properly?,0.00,100.00,50.00,347.00
# Columns below this comment are as follows:
# 1. Time results were received.
# 2. MD5 hash of participant's IP address.
# 3. Controller name.
# 4. Item number.
# 5. Element number.
# 6. Type.
# 7. Group.
# 8. Field name.
# 9. Field value.
1565025714,5bdc0c642bf6d60eaf9ed00db27ce92d,Form,8,0,end_experiment,NULL,_REACTION_TIME_,2430
#
# Results on Monday August 05 2019 17:44:26 UTC.
# USER AGENT: Mozilla/5.0 (Windows NT 10.0; Win64; x64) AppleWebKit/537.36 (KHTML, like Gecko) Chrome/75.0.3770.142 Safari/537.36
# Design number was non-random = 2
#
# Columns below this comment are as follows:
# 1. Time results were received.
# 2. MD5 hash of participant's IP address.
# 3. Controller name.
# 4. Item number.
# 5. Element number.
# 6. Type.
# 7. Group.
# 8. Field name.
# 9. Field value.
1565027067,213bd2ec281a2198b8997e793131ca2a,Form,7,0,consent,NULL,consent,yes
1565027067,213bd2ec281a2198b8997e793131ca2a,Form,7,0,consent,NULL,_REACTION_TIME_,10202
1565027067,213bd2ec281a2198b8997e793131ca2a,Form,1,0,intro,NULL,age,27
1565027067,213bd2ec281a2198b8997e793131ca2a,Form,1,0,intro,NULL,natlang,English
1565027067,213bd2ec281a2198b8997e793131ca2a,Form,1,0,intro,NULL,otherlang,None
1565027067,213bd2ec281a2198b8997e793131ca2a,Form,1,0,intro,NULL,Prolific,5c79a0cc76745a000146d94a
1565027067,213bd2ec281a2198b8997e793131ca2a,Form,1,0,intro,NULL,gender,female
1565027067,213bd2ec281a2198b8997e793131ca2a,Form,1,0,intro,NULL,_REACTION_TIME_,23611
1565027067,213bd2ec281a2198b8997e793131ca2a,Form,2,0,intro1,NULL,_REACTION_TIME_,8011
1565027067,213bd2ec281a2198b8997e793131ca2a,Form,3,0,intro2,NULL,_REACTION_TIME_,16880
1565027067,213bd2ec281a2198b8997e793131ca2a,Form,4,0,intro3,NULL,_REACTION_TIME_,10105
# Columns below this comment are as follows:
# 1. Time results were received.
# 2. MD5 hash of participant's IP address.
# 3. Controller name.
# 4. Item number.
# 5. Element number.
# 6. Type.
# 7. Group.
# 8. Sentence (or sentence MD5).
1565027067,213bd2ec281a2198b8997e793131ca2a,MultiSlider,21,0,EveryNot.All.HowManyBias,5,Paula is a dedicated store assistant. A week ago%2C five boxes of new products had arrived at the store. Her manager asked how many of the boxes Paula had opened.
1565027067,213bd2ec281a2198b8997e793131ca2a,MultiSlider,21,0,EveryNot.All.HowManyBias,5,How relevant are the following questions for the story?
# Columns below this comment are as follows:
# 1. Time results were received.
# 2. MD5 hash of participant's IP address.
# 3. Controller name.
# 4. Item number.
# 5. Element number.
# 6. Type.
# 7. Group.
# 8. html1.
# 9. startValue.
# 10. endValue.
# 11. value.
1565027067,213bd2ec281a2198b8997e793131ca2a,MultiSlider,21,0,EveryNot.All.HowManyBias,5,<b>Have all</b> of the boxes been opened?,0.00,100.00,78.50
1565027067,213bd2ec281a2198b8997e793131ca2a,MultiSlider,21,0,EveryNot.All.HowManyBias,5,<b>Have all</b> of the boxes been opened?,0.00,100.00,99.50
1565027067,213bd2ec281a2198b8997e793131ca2a,MultiSlider,21,0,EveryNot.All.HowManyBias,5,<b>Have all</b> of the boxes been opened?,0.00,100.00,49.17
# Columns below this comment are as follows:
# 1. Time results were received.
# 2. MD5 hash of participant's IP address.
# 3. Controller name.
# 4. Item number.
# 5. Element number.
# 6. Type.
# 7. Group.
# 8. html2.
# 9. startValue.
# 10. endValue.
# 11. value.
1565027067,213bd2ec281a2198b8997e793131ca2a,MultiSlider,21,0,EveryNot.All.HowManyBias,5,<b>Have any</b> of the boxes been opened?,0.00,100.00,97.17
1565027067,213bd2ec281a2198b8997e793131ca2a,MultiSlider,21,0,EveryNot.All.HowManyBias,5,<b>Have any</b> of the boxes been opened?,0.00,100.00,48.50
# The lines below this comment are in groups of 2.
# The formats of the lines in each of these groups are as follows:
#
# Line 1:
#     Col. 1: Time results were received.
#     Col. 2: MD5 hash of participant's IP address.
#     Col. 3: Controller name.
#     Col. 4: Item number.
#     Col. 5: Element number.
#     Col. 6: Type.
#     Col. 7: Group.
#     Col. 8: html.
#     Col. 9: startValue.
#     Col. 10: endValue.
#     Col. 11: value.
#     Col. 12: _REACTION_TIME_.
# Line 2:
#     Col. 1: Time results were received.
#     Col. 2: MD5 hash of participant's IP address.
#     Col. 3: Controller name.
#     Col. 4: Item number.
#     Col. 5: Element number.
#     Col. 6: Type.
#     Col. 7: Group.
#     Col. 8: Sentence (or sentence MD5).
1565027067,213bd2ec281a2198b8997e793131ca2a,MultiSlider,21,0,EveryNot.All.HowManyBias,5,<b>How many</b> of the boxes have been opened?,0.00,100.00,99.83,57761.00
1565027067,213bd2ec281a2198b8997e793131ca2a,MultiSlider,74,0,EveryNot.None.NoneBias,22,The unsuccessful broker has made some risky investments in the stock market. He nervously stared at the monitor%2C because his house may be foreclosed if none of the investments pay off.
# The lines below this comment are in groups of 2.
# The formats of the lines in each of these groups are as follows:
#
# Line 1:
#     Col. 1: Time results were received.
#     Col. 2: MD5 hash of participant's IP address.
#     Col. 3: Controller name.
#     Col. 4: Item number.
#     Col. 5: Element number.
#     Col. 6: Type.
#     Col. 7: Group.
#     Col. 8: Sentence (or sentence MD5).
# Line 2:
#     Col. 1: Time results were received.
#     Col. 2: MD5 hash of participant's IP address.
#     Col. 3: Controller name.
#     Col. 4: Item number.
#     Col. 5: Element number.
#     Col. 6: Type.
#     Col. 7: Group.
#     Col. 8: html1.
#     Col. 9: startValue.
#     Col. 10: endValue.
#     Col. 11: value.
1565027067,213bd2ec281a2198b8997e793131ca2a,MultiSlider,74,0,EveryNot.None.NoneBias,22,How relevant are the following questions for the story?
1565027067,213bd2ec281a2198b8997e793131ca2a,MultiSlider,74,0,EveryNot.None.NoneBias,22,<b>Did any</b> of the investment pay off?,0.00,100.00,96.17
# Columns below this comment are as follows:
# 1. Time results were received.
# 2. MD5 hash of participant's IP address.
# 3. Controller name.
# 4. Item number.
# 5. Element number.
# 6. Type.
# 7. Group.
# 8. html2.
# 9. startValue.
# 10. endValue.
# 11. value.
1565027067,213bd2ec281a2198b8997e793131ca2a,MultiSlider,74,0,EveryNot.None.NoneBias,22,<b>How many</b> of the investment paid off?,0.00,100.00,19.17
1565027067,213bd2ec281a2198b8997e793131ca2a,MultiSlider,74,0,EveryNot.None.NoneBias,22,<b>How many</b> of the investment paid off?,0.00,100.00,76.83
# The lines below this comment are in groups of 2.
# The formats of the lines in each of these groups are as follows:
#
# Line 1:
#     Col. 1: Time results were received.
#     Col. 2: MD5 hash of participant's IP address.
#     Col. 3: Controller name.
#     Col. 4: Item number.
#     Col. 5: Element number.
#     Col. 6: Type.
#     Col. 7: Group.
#     Col. 8: html.
#     Col. 9: startValue.
#     Col. 10: endValue.
#     Col. 11: value.
#     Col. 12: _REACTION_TIME_.
# Line 2:
#     Col. 1: Time results were received.
#     Col. 2: MD5 hash of participant's IP address.
#     Col. 3: Controller name.
#     Col. 4: Item number.
#     Col. 5: Element number.
#     Col. 6: Type.
#     Col. 7: Group.
#     Col. 8: Sentence (or sentence MD5).
1565027067,213bd2ec281a2198b8997e793131ca2a,MultiSlider,74,0,EveryNot.None.NoneBias,22,<b>Did all</b> of the investment pay off?,0.00,100.00,48.83,29387.00
1565027067,213bd2ec281a2198b8997e793131ca2a,MultiSlider,11,0,EveryNot.All.NoneBias,1,The whole kindergarten was going on a field trip. The teacher jumped on the bus to see if any children had got on the bus.
# The lines below this comment are in groups of 2.
# The formats of the lines in each of these groups are as follows:
#
# Line 1:
#     Col. 1: Time results were received.
#     Col. 2: MD5 hash of participant's IP address.
#     Col. 3: Controller name.
#     Col. 4: Item number.
#     Col. 5: Element number.
#     Col. 6: Type.
#     Col. 7: Group.
#     Col. 8: Sentence (or sentence MD5).
# Line 2:
#     Col. 1: Time results were received.
#     Col. 2: MD5 hash of participant's IP address.
#     Col. 3: Controller name.
#     Col. 4: Item number.
#     Col. 5: Element number.
#     Col. 6: Type.
#     Col. 7: Group.
#     Col. 8: html1.
#     Col. 9: startValue.
#     Col. 10: endValue.
#     Col. 11: value.
1565027067,213bd2ec281a2198b8997e793131ca2a,MultiSlider,11,0,EveryNot.All.NoneBias,1,How relevant are the following questions for the story?
1565027067,213bd2ec281a2198b8997e793131ca2a,MultiSlider,11,0,EveryNot.All.NoneBias,1,<b>Did any</b> of the kindergartners get on the bus?,0.00,100.00,96.50
# The lines below this comment are in groups of 2.
# The formats of the lines in each of these groups are as follows:
#
# Line 1:
#     Col. 1: Time results were received.
#     Col. 2: MD5 hash of participant's IP address.
#     Col. 3: Controller name.
#     Col. 4: Item number.
#     Col. 5: Element number.
#     Col. 6: Type.
#     Col. 7: Group.
#     Col. 8: html2.
#     Col. 9: startValue.
#     Col. 10: endValue.
#     Col. 11: value.
# Line 2:
#     Col. 1: Time results were received.
#     Col. 2: MD5 hash of participant's IP address.
#     Col. 3: Controller name.
#     Col. 4: Item number.
#     Col. 5: Element number.
#     Col. 6: Type.
#     Col. 7: Group.
#     Col. 8: html.
#     Col. 9: startValue.
#     Col. 10: endValue.
#     Col. 11: value.
#     Col. 12: _REACTION_TIME_.
1565027067,213bd2ec281a2198b8997e793131ca2a,MultiSlider,11,0,EveryNot.All.NoneBias,1,<b>How many</b> of the kindergartners got on the bus?,0.00,100.00,14.83
1565027067,213bd2ec281a2198b8997e793131ca2a,MultiSlider,11,0,EveryNot.All.NoneBias,1,<b>Did all</b> of the kindergartners get on the bus?,0.00,100.00,95.83,50163.00
# Columns below this comment are as follows:
# 1. Time results were received.
# 2. MD5 hash of participant's IP address.
# 3. Controller name.
# 4. Item number.
# 5. Element number.
# 6. Type.
# 7. Group.
# 8. Sentence (or sentence MD5).
1565027067,213bd2ec281a2198b8997e793131ca2a,MultiSlider,12,0,EveryNot.All.HowManyBias,2,Erin is a vet. During her last trip%2C she encountered six deer in critical condition%2C and she tried to keep as many alive as possible.
1565027067,213bd2ec281a2198b8997e793131ca2a,MultiSlider,12,0,EveryNot.All.HowManyBias,2,How relevant are the following questions for the story?
# The lines below this comment are in groups of 2.
# The formats of the lines in each of these groups are as follows:
#
# Line 1:
#     Col. 1: Time results were received.
#     Col. 2: MD5 hash of participant's IP address.
#     Col. 3: Controller name.
#     Col. 4: Item number.
#     Col. 5: Element number.
#     Col. 6: Type.
#     Col. 7: Group.
#     Col. 8: html1.
#     Col. 9: startValue.
#     Col. 10: endValue.
#     Col. 11: value.
# Line 2:
#     Col. 1: Time results were received.
#     Col. 2: MD5 hash of participant's IP address.
#     Col. 3: Controller name.
#     Col. 4: Item number.
#     Col. 5: Element number.
#     Col. 6: Type.
#     Col. 7: Group.
#     Col. 8: html2.
#     Col. 9: startValue.
#     Col. 10: endValue.
#     Col. 11: value.
1565027067,213bd2ec281a2198b8997e793131ca2a,MultiSlider,12,0,EveryNot.All.HowManyBias,2,<b>Did all</b> of the six deer survive?,0.00,100.00,92.50
1565027067,213bd2ec281a2198b8997e793131ca2a,MultiSlider,12,0,EveryNot.All.HowManyBias,2,<b>Did any</b> of the six deer survive?,0.00,100.00,90.83
# The lines below this comment are in groups of 2.
# The formats of the lines in each of these groups are as follows:
#
# Line 1:
#     Col. 1: Time results were received.
#     Col. 2: MD5 hash of participant's IP address.
#     Col. 3: Controller name.
#     Col. 4: Item number.
#     Col. 5: Element number.
#     Col. 6: Type.
#     Col. 7: Group.
#     Col. 8: html.
#     Col. 9: startValue.
#     Col. 10: endValue.
#     Col. 11: value.
#     Col. 12: _REACTION_TIME_.
# Line 2:
#     Col. 1: Time results were received.
#     Col. 2: MD5 hash of participant's IP address.
#     Col. 3: Controller name.
#     Col. 4: Item number.
#     Col. 5: Element number.
#     Col. 6: Type.
#     Col. 7: Group.
#     Col. 8: Sentence (or sentence MD5).
1565027067,213bd2ec281a2198b8997e793131ca2a,MultiSlider,12,0,EveryNot.All.HowManyBias,2,<b>How many</b> of the six deer survived?,0.00,100.00,91.50,13900.00
1565027067,213bd2ec281a2198b8997e793131ca2a,MultiSlider,48,0,EveryNot.Some.HowManyBias,14,Roy recently started a career as a professional gamer. A journalist interviewed him%2C and asked how many of the five Major League Gaming tournaments he had been invited to.
# The lines below this comment are in groups of 2.
# The formats of the lines in each of these groups are as follows:
#
# Line 1:
#     Col. 1: Time results were received.
#     Col. 2: MD5 hash of participant's IP address.
#     Col. 3: Controller name.
#     Col. 4: Item number.
#     Col. 5: Element number.
#     Col. 6: Type.
#     Col. 7: Group.
#     Col. 8: Sentence (or sentence MD5).
# Line 2:
#     Col. 1: Time results were received.
#     Col. 2: MD5 hash of participant's IP address.
#     Col. 3: Controller name.
#     Col. 4: Item number.
#     Col. 5: Element number.
#     Col. 6: Type.
#     Col. 7: Group.
#     Col. 8: html1.
#     Col. 9: startValue.
#     Col. 10: endValue.
#     Col. 11: value.
1565027067,213bd2ec281a2198b8997e793131ca2a,MultiSlider,48,0,EveryNot.Some.HowManyBias,14,How relevant are the following questions for the story?
1565027067,213bd2ec281a2198b8997e793131ca2a,MultiSlider,48,0,EveryNot.Some.HowManyBias,14,Has Roy been invited to<b> all of </b>the Major League Gaming tournament?,0.00,100.00,65.17
# Columns below this comment are as follows:
# 1. Time results were received.
# 2. MD5 hash of participant's IP address.
# 3. Controller name.
# 4. Item number.
# 5. Element number.
# 6. Type.
# 7. Group.
# 8. html2.
# 9. startValue.
# 10. endValue.
# 11. value.
1565027067,213bd2ec281a2198b8997e793131ca2a,MultiSlider,48,0,EveryNot.Some.HowManyBias,14,Has Roy been invited to<b> any of </b>the Major League Gaming tournament?,0.00,100.00,95.17
1565027067,213bd2ec281a2198b8997e793131ca2a,MultiSlider,48,0,EveryNot.Some.HowManyBias,14,Has Roy been invited to<b> any of </b>the Major League Gaming tournament?,0.00,100.00,65.50
# The lines below this comment are in groups of 2.
# The formats of the lines in each of these groups are as follows:
#
# Line 1:
#     Col. 1: Time results were received.
#     Col. 2: MD5 hash of participant's IP address.
#     Col. 3: Controller name.
#     Col. 4: Item number.
#     Col. 5: Element number.
#     Col. 6: Type.
#     Col. 7: Group.
#     Col. 8: html.
#     Col. 9: startValue.
#     Col. 10: endValue.
#     Col. 11: value.
#     Col. 12: _REACTION_TIME_.
# Line 2:
#     Col. 1: Time results were received.
#     Col. 2: MD5 hash of participant's IP address.
#     Col. 3: Controller name.
#     Col. 4: Item number.
#     Col. 5: Element number.
#     Col. 6: Type.
#     Col. 7: Group.
#     Col. 8: Sentence (or sentence MD5).
1565027067,213bd2ec281a2198b8997e793131ca2a,MultiSlider,48,0,EveryNot.Some.HowManyBias,14,<b>How many</b> of the Major League Gaming tournament has Roy been invited to?,0.00,100.00,98.83,29445.00
1565027067,213bd2ec281a2198b8997e793131ca2a,MultiSlider,65,0,EveryNot.None.NoneBias,19,Bill is an average runner who tried to break five Guinness records of running. At the day of the challenge%2C he doubted himself and wondered if he could even finish a single challenge.
# The lines below this comment are in groups of 2.
# The formats of the lines in each of these groups are as follows:
#
# Line 1:
#     Col. 1: Time results were received.
#     Col. 2: MD5 hash of participant's IP address.
#     Col. 3: Controller name.
#     Col. 4: Item number.
#     Col. 5: Element number.
#     Col. 6: Type.
#     Col. 7: Group.
#     Col. 8: Sentence (or sentence MD5).
# Line 2:
#     Col. 1: Time results were received.
#     Col. 2: MD5 hash of participant's IP address.
#     Col. 3: Controller name.
#     Col. 4: Item number.
#     Col. 5: Element number.
#     Col. 6: Type.
#     Col. 7: Group.
#     Col. 8: html1.
#     Col. 9: startValue.
#     Col. 10: endValue.
#     Col. 11: value.
1565027067,213bd2ec281a2198b8997e793131ca2a,MultiSlider,65,0,EveryNot.None.NoneBias,19,How relevant are the following questions for the story?
1565027067,213bd2ec281a2198b8997e793131ca2a,MultiSlider,65,0,EveryNot.None.NoneBias,19,<b>Were any</b> of the records broken in the end?,0.00,100.00,96.17
# Columns below this comment are as follows:
# 1. Time results were received.
# 2. MD5 hash of participant's IP address.
# 3. Controller name.
# 4. Item number.
# 5. Element number.
# 6. Type.
# 7. Group.
# 8. html2.
# 9. startValue.
# 10. endValue.
# 11. value.
1565027067,213bd2ec281a2198b8997e793131ca2a,MultiSlider,65,0,EveryNot.None.NoneBias,19,<b>How many</b> of the records were broken in the end?,0.00,100.00,67.83
1565027067,213bd2ec281a2198b8997e793131ca2a,MultiSlider,65,0,EveryNot.None.NoneBias,19,<b>How many</b> of the records were broken in the end?,0.00,100.00,81.50
1565027067,213bd2ec281a2198b8997e793131ca2a,MultiSlider,65,0,EveryNot.None.NoneBias,19,<b>How many</b> of the records were broken in the end?,0.00,100.00,63.50
# The lines below this comment are in groups of 2.
# The formats of the lines in each of these groups are as follows:
#
# Line 1:
#     Col. 1: Time results were received.
#     Col. 2: MD5 hash of participant's IP address.
#     Col. 3: Controller name.
#     Col. 4: Item number.
#     Col. 5: Element number.
#     Col. 6: Type.
#     Col. 7: Group.
#     Col. 8: html.
#     Col. 9: startValue.
#     Col. 10: endValue.
#     Col. 11: value.
#     Col. 12: _REACTION_TIME_.
# Line 2:
#     Col. 1: Time results were received.
#     Col. 2: MD5 hash of participant's IP address.
#     Col. 3: Controller name.
#     Col. 4: Item number.
#     Col. 5: Element number.
#     Col. 6: Type.
#     Col. 7: Group.
#     Col. 8: Sentence (or sentence MD5).
1565027067,213bd2ec281a2198b8997e793131ca2a,MultiSlider,65,0,EveryNot.None.NoneBias,19,<b>Were all</b> of the records broken in the end?,0.00,100.00,97.50,29872.00
1565027067,213bd2ec281a2198b8997e793131ca2a,MultiSlider,79,0,EveryNot.None.AllBias,24,Wayne is a diligent therapist who is always there for his patients. Today%2C he has a minor flu. His assistant asks if she has to clean out his entire schedule for the day.
# The lines below this comment are in groups of 2.
# The formats of the lines in each of these groups are as follows:
#
# Line 1:
#     Col. 1: Time results were received.
#     Col. 2: MD5 hash of participant's IP address.
#     Col. 3: Controller name.
#     Col. 4: Item number.
#     Col. 5: Element number.
#     Col. 6: Type.
#     Col. 7: Group.
#     Col. 8: Sentence (or sentence MD5).
# Line 2:
#     Col. 1: Time results were received.
#     Col. 2: MD5 hash of participant's IP address.
#     Col. 3: Controller name.
#     Col. 4: Item number.
#     Col. 5: Element number.
#     Col. 6: Type.
#     Col. 7: Group.
#     Col. 8: html1.
#     Col. 9: startValue.
#     Col. 10: endValue.
#     Col. 11: value.
1565027067,213bd2ec281a2198b8997e793131ca2a,MultiSlider,79,0,EveryNot.None.AllBias,24,How relevant are the following questions for the story?
1565027067,213bd2ec281a2198b8997e793131ca2a,MultiSlider,79,0,EveryNot.None.AllBias,24,<b>How many</b> of the appointments were cancelled?,0.00,100.00,8.50
# The lines below this comment are in groups of 2.
# The formats of the lines in each of these groups are as follows:
#
# Line 1:
#     Col. 1: Time results were received.
#     Col. 2: MD5 hash of participant's IP address.
#     Col. 3: Controller name.
#     Col. 4: Item number.
#     Col. 5: Element number.
#     Col. 6: Type.
#     Col. 7: Group.
#     Col. 8: html1.
#     Col. 9: startValue.
#     Col. 10: endValue.
#     Col. 11: value.
# Line 2:
#     Col. 1: Time results were received.
#     Col. 2: MD5 hash of participant's IP address.
#     Col. 3: Controller name.
#     Col. 4: Item number.
#     Col. 5: Element number.
#     Col. 6: Type.
#     Col. 7: Group.
#     Col. 8: html2.
#     Col. 9: startValue.
#     Col. 10: endValue.
#     Col. 11: value.
1565027067,213bd2ec281a2198b8997e793131ca2a,MultiSlider,79,0,EveryNot.None.AllBias,24,<b>How many</b> of the appointments were cancelled?,0.00,100.00,34.50
1565027067,213bd2ec281a2198b8997e793131ca2a,MultiSlider,79,0,EveryNot.None.AllBias,24,<b>Were all</b> of the appointments cancelled?,0.00,100.00,9.50
# The lines below this comment are in groups of 2.
# The formats of the lines in each of these groups are as follows:
#
# Line 1:
#     Col. 1: Time results were received.
#     Col. 2: MD5 hash of participant's IP address.
#     Col. 3: Controller name.
#     Col. 4: Item number.
#     Col. 5: Element number.
#     Col. 6: Type.
#     Col. 7: Group.
#     Col. 8: html2.
#     Col. 9: startValue.
#     Col. 10: endValue.
#     Col. 11: value.
# Line 2:
#     Col. 1: Time results were received.
#     Col. 2: MD5 hash of participant's IP address.
#     Col. 3: Controller name.
#     Col. 4: Item number.
#     Col. 5: Element number.
#     Col. 6: Type.
#     Col. 7: Group.
#     Col. 8: html.
#     Col. 9: startValue.
#     Col. 10: endValue.
#     Col. 11: value.
#     Col. 12: _REACTION_TIME_.
1565027067,213bd2ec281a2198b8997e793131ca2a,MultiSlider,79,0,EveryNot.None.AllBias,24,<b>Were all</b> of the appointments cancelled?,0.00,100.00,84.17
1565027067,213bd2ec281a2198b8997e793131ca2a,MultiSlider,79,0,EveryNot.None.AllBias,24,<b>Were any</b> of the appointments cancelled?,0.00,100.00,94.50,41420.00
# Columns below this comment are as follows:
# 1. Time results were received.
# 2. MD5 hash of participant's IP address.
# 3. Controller name.
# 4. Item number.
# 5. Element number.
# 6. Type.
# 7. Group.
# 8. Sentence (or sentence MD5).
1565027067,213bd2ec281a2198b8997e793131ca2a,MultiSlider,70,0,EveryNot.None.AllBias,21,Julia is a straight-A student. This semester%2C she enrolled for the easiest classes. After the semester%2C her mother phoned her to find out if her daughter had made a mess of all of her classes.
1565027067,213bd2ec281a2198b8997e793131ca2a,MultiSlider,70,0,EveryNot.None.AllBias,21,How relevant are the following questions for the story?
# The lines below this comment are in groups of 2.
# The formats of the lines in each of these groups are as follows:
#
# Line 1:
#     Col. 1: Time results were received.
#     Col. 2: MD5 hash of participant's IP address.
#     Col. 3: Controller name.
#     Col. 4: Item number.
#     Col. 5: Element number.
#     Col. 6: Type.
#     Col. 7: Group.
#     Col. 8: html1.
#     Col. 9: startValue.
#     Col. 10: endValue.
#     Col. 11: value.
# Line 2:
#     Col. 1: Time results were received.
#     Col. 2: MD5 hash of participant's IP address.
#     Col. 3: Controller name.
#     Col. 4: Item number.
#     Col. 5: Element number.
#     Col. 6: Type.
#     Col. 7: Group.
#     Col. 8: html2.
#     Col. 9: startValue.
#     Col. 10: endValue.
#     Col. 11: value.
1565027067,213bd2ec281a2198b8997e793131ca2a,MultiSlider,70,0,EveryNot.None.AllBias,21,<b>How many</b> of the classes did Julia fail?,0.00,100.00,95.83
1565027067,213bd2ec281a2198b8997e793131ca2a,MultiSlider,70,0,EveryNot.None.AllBias,21,Did Julia fail<b> all of </b> the classes?,0.00,100.00,66.17
# Columns below this comment are as follows:
# 1. Time results were received.
# 2. MD5 hash of participant's IP address.
# 3. Controller name.
# 4. Item number.
# 5. Element number.
# 6. Type.
# 7. Group.
# 8. html2.
# 9. startValue.
# 10. endValue.
# 11. value.
1565027067,213bd2ec281a2198b8997e793131ca2a,MultiSlider,70,0,EveryNot.None.AllBias,21,Did Julia fail<b> all of </b> the classes?,0.00,100.00,57.83
1565027067,213bd2ec281a2198b8997e793131ca2a,MultiSlider,70,0,EveryNot.None.AllBias,21,Did Julia fail<b> all of </b> the classes?,0.00,100.00,34.17
1565027067,213bd2ec281a2198b8997e793131ca2a,MultiSlider,70,0,EveryNot.None.AllBias,21,Did Julia fail<b> all of </b> the classes?,0.00,100.00,64.17
# The lines below this comment are in groups of 2.
# The formats of the lines in each of these groups are as follows:
#
# Line 1:
#     Col. 1: Time results were received.
#     Col. 2: MD5 hash of participant's IP address.
#     Col. 3: Controller name.
#     Col. 4: Item number.
#     Col. 5: Element number.
#     Col. 6: Type.
#     Col. 7: Group.
#     Col. 8: html.
#     Col. 9: startValue.
#     Col. 10: endValue.
#     Col. 11: value.
#     Col. 12: _REACTION_TIME_.
# Line 2:
#     Col. 1: Time results were received.
#     Col. 2: MD5 hash of participant's IP address.
#     Col. 3: Controller name.
#     Col. 4: Item number.
#     Col. 5: Element number.
#     Col. 6: Type.
#     Col. 7: Group.
#     Col. 8: Sentence (or sentence MD5).
1565027067,213bd2ec281a2198b8997e793131ca2a,MultiSlider,70,0,EveryNot.None.AllBias,21,Did Julia fail<b> any of </b>the classes?,0.00,100.00,98.83,27885.00
1565027067,213bd2ec281a2198b8997e793131ca2a,MultiSlider,47,0,EveryNot.Some.NoneBias,13,Lily inherited her mom's huge book collection. When her boyfriend visited%2C he wondered if Lily had cataloged anything from this collection.
# The lines below this comment are in groups of 2.
# The formats of the lines in each of these groups are as follows:
#
# Line 1:
#     Col. 1: Time results were received.
#     Col. 2: MD5 hash of participant's IP address.
#     Col. 3: Controller name.
#     Col. 4: Item number.
#     Col. 5: Element number.
#     Col. 6: Type.
#     Col. 7: Group.
#     Col. 8: Sentence (or sentence MD5).
# Line 2:
#     Col. 1: Time results were received.
#     Col. 2: MD5 hash of participant's IP address.
#     Col. 3: Controller name.
#     Col. 4: Item number.
#     Col. 5: Element number.
#     Col. 6: Type.
#     Col. 7: Group.
#     Col. 8: html1.
#     Col. 9: startValue.
#     Col. 10: endValue.
#     Col. 11: value.
1565027067,213bd2ec281a2198b8997e793131ca2a,MultiSlider,47,0,EveryNot.Some.NoneBias,13,How relevant are the following questions for the story?
1565027067,213bd2ec281a2198b8997e793131ca2a,MultiSlider,47,0,EveryNot.Some.NoneBias,13,<b>Have any</b> of the books been cataloged?,0.00,100.00,98.50
# Columns below this comment are as follows:
# 1. Time results were received.
# 2. MD5 hash of participant's IP address.
# 3. Controller name.
# 4. Item number.
# 5. Element number.
# 6. Type.
# 7. Group.
# 8. html2.
# 9. startValue.
# 10. endValue.
# 11. value.
1565027067,213bd2ec281a2198b8997e793131ca2a,MultiSlider,47,0,EveryNot.Some.NoneBias,13,<b>How many</b> of the books have been cataloged?,0.00,100.00,64.83
1565027067,213bd2ec281a2198b8997e793131ca2a,MultiSlider,47,0,EveryNot.Some.NoneBias,13,<b>How many</b> of the books have been cataloged?,0.00,100.00,78.17
# The lines below this comment are in groups of 2.
# The formats of the lines in each of these groups are as follows:
#
# Line 1:
#     Col. 1: Time results were received.
#     Col. 2: MD5 hash of participant's IP address.
#     Col. 3: Controller name.
#     Col. 4: Item number.
#     Col. 5: Element number.
#     Col. 6: Type.
#     Col. 7: Group.
#     Col. 8: html.
#     Col. 9: startValue.
#     Col. 10: endValue.
#     Col. 11: value.
#     Col. 12: _REACTION_TIME_.
# Line 2:
#     Col. 1: Time results were received.
#     Col. 2: MD5 hash of participant's IP address.
#     Col. 3: Controller name.
#     Col. 4: Item number.
#     Col. 5: Element number.
#     Col. 6: Type.
#     Col. 7: Group.
#     Col. 8: Sentence (or sentence MD5).
1565027067,213bd2ec281a2198b8997e793131ca2a,MultiSlider,47,0,EveryNot.Some.NoneBias,13,<b>Have all</b> of the books been cataloged?,0.00,100.00,63.17,33719.00
1565027067,213bd2ec281a2198b8997e793131ca2a,MultiSlider,57,0,EveryNot.None.HowManyBias,17,Jack is an incompetent homicide detective trying to solve three recent murders. His boss tells him that he will get a bonus depending on his performance.
# The lines below this comment are in groups of 2.
# The formats of the lines in each of these groups are as follows:
#
# Line 1:
#     Col. 1: Time results were received.
#     Col. 2: MD5 hash of participant's IP address.
#     Col. 3: Controller name.
#     Col. 4: Item number.
#     Col. 5: Element number.
#     Col. 6: Type.
#     Col. 7: Group.
#     Col. 8: Sentence (or sentence MD5).
# Line 2:
#     Col. 1: Time results were received.
#     Col. 2: MD5 hash of participant's IP address.
#     Col. 3: Controller name.
#     Col. 4: Item number.
#     Col. 5: Element number.
#     Col. 6: Type.
#     Col. 7: Group.
#     Col. 8: html1.
#     Col. 9: startValue.
#     Col. 10: endValue.
#     Col. 11: value.
1565027067,213bd2ec281a2198b8997e793131ca2a,MultiSlider,57,0,EveryNot.None.HowManyBias,17,How relevant are the following questions for the story?
1565027067,213bd2ec281a2198b8997e793131ca2a,MultiSlider,57,0,EveryNot.None.HowManyBias,17,<b>Have all</b> of the cases been solved?,0.00,100.00,96.83
# The lines below this comment are in groups of 2.
# The formats of the lines in each of these groups are as follows:
#
# Line 1:
#     Col. 1: Time results were received.
#     Col. 2: MD5 hash of participant's IP address.
#     Col. 3: Controller name.
#     Col. 4: Item number.
#     Col. 5: Element number.
#     Col. 6: Type.
#     Col. 7: Group.
#     Col. 8: html2.
#     Col. 9: startValue.
#     Col. 10: endValue.
#     Col. 11: value.
# Line 2:
#     Col. 1: Time results were received.
#     Col. 2: MD5 hash of participant's IP address.
#     Col. 3: Controller name.
#     Col. 4: Item number.
#     Col. 5: Element number.
#     Col. 6: Type.
#     Col. 7: Group.
#     Col. 8: html.
#     Col. 9: startValue.
#     Col. 10: endValue.
#     Col. 11: value.
#     Col. 12: _REACTION_TIME_.
1565027067,213bd2ec281a2198b8997e793131ca2a,MultiSlider,57,0,EveryNot.None.HowManyBias,17,<b>Have any</b> of the cases been solved?,0.00,100.00,95.50
1565027067,213bd2ec281a2198b8997e793131ca2a,MultiSlider,57,0,EveryNot.None.HowManyBias,17,<b>How many</b> of the cases have been solved?,0.00,100.00,96.17,19827.00
# Columns below this comment are as follows:
# 1. Time results were received.
# 2. MD5 hash of participant's IP address.
# 3. Controller name.
# 4. Item number.
# 5. Element number.
# 6. Type.
# 7. Group.
# 8. Sentence (or sentence MD5).
1565027067,213bd2ec281a2198b8997e793131ca2a,MultiSlider,66,0,EveryNot.None.HowManyBias,20,Helena is a mediocre athlete who made a resolution to win three Olympic medals this year. Her coach thought that she would be motivated by the prizes%2C which was proportional to her performance in the game.
1565027067,213bd2ec281a2198b8997e793131ca2a,MultiSlider,66,0,EveryNot.None.HowManyBias,20,How relevant are the following questions for the story?
# The lines below this comment are in groups of 2.
# The formats of the lines in each of these groups are as follows:
#
# Line 1:
#     Col. 1: Time results were received.
#     Col. 2: MD5 hash of participant's IP address.
#     Col. 3: Controller name.
#     Col. 4: Item number.
#     Col. 5: Element number.
#     Col. 6: Type.
#     Col. 7: Group.
#     Col. 8: html1.
#     Col. 9: startValue.
#     Col. 10: endValue.
#     Col. 11: value.
# Line 2:
#     Col. 1: Time results were received.
#     Col. 2: MD5 hash of participant's IP address.
#     Col. 3: Controller name.
#     Col. 4: Item number.
#     Col. 5: Element number.
#     Col. 6: Type.
#     Col. 7: Group.
#     Col. 8: html2.
#     Col. 9: startValue.
#     Col. 10: endValue.
#     Col. 11: value.
1565027067,213bd2ec281a2198b8997e793131ca2a,MultiSlider,66,0,EveryNot.None.HowManyBias,20,Did she win<b> all of </b> the medals?,0.00,100.00,89.17
1565027067,213bd2ec281a2198b8997e793131ca2a,MultiSlider,66,0,EveryNot.None.HowManyBias,20,Did she win<b> any of </b>the medals?,0.00,100.00,89.17
# The lines below this comment are in groups of 2.
# The formats of the lines in each of these groups are as follows:
#
# Line 1:
#     Col. 1: Time results were received.
#     Col. 2: MD5 hash of participant's IP address.
#     Col. 3: Controller name.
#     Col. 4: Item number.
#     Col. 5: Element number.
#     Col. 6: Type.
#     Col. 7: Group.
#     Col. 8: html2.
#     Col. 9: startValue.
#     Col. 10: endValue.
#     Col. 11: value.
# Line 2:
#     Col. 1: Time results were received.
#     Col. 2: MD5 hash of participant's IP address.
#     Col. 3: Controller name.
#     Col. 4: Item number.
#     Col. 5: Element number.
#     Col. 6: Type.
#     Col. 7: Group.
#     Col. 8: html.
#     Col. 9: startValue.
#     Col. 10: endValue.
#     Col. 11: value.
#     Col. 12: _REACTION_TIME_.
1565027067,213bd2ec281a2198b8997e793131ca2a,MultiSlider,66,0,EveryNot.None.HowManyBias,20,Did she win<b> any of </b>the medals?,0.00,100.00,98.75
1565027067,213bd2ec281a2198b8997e793131ca2a,MultiSlider,66,0,EveryNot.None.HowManyBias,20,<b>How many</b> of the medals did she win?,0.00,100.00,89.42,27331.00
# Columns below this comment are as follows:
# 1. Time results were received.
# 2. MD5 hash of participant's IP address.
# 3. Controller name.
# 4. Item number.
# 5. Element number.
# 6. Type.
# 7. Group.
# 8. Sentence (or sentence MD5).
1565027067,213bd2ec281a2198b8997e793131ca2a,MultiSlider,29,0,EveryNot.All.NoneBias,7,The nursery normally changes infants' diapers before they go to nap. This afternoon%2C a health inspector wanted to see if any of the infants had been changed before nap time.
1565027067,213bd2ec281a2198b8997e793131ca2a,MultiSlider,29,0,EveryNot.All.NoneBias,7,How relevant are the following questions for the story?
# The lines below this comment are in groups of 2.
# The formats of the lines in each of these groups are as follows:
#
# Line 1:
#     Col. 1: Time results were received.
#     Col. 2: MD5 hash of participant's IP address.
#     Col. 3: Controller name.
#     Col. 4: Item number.
#     Col. 5: Element number.
#     Col. 6: Type.
#     Col. 7: Group.
#     Col. 8: html1.
#     Col. 9: startValue.
#     Col. 10: endValue.
#     Col. 11: value.
# Line 2:
#     Col. 1: Time results were received.
#     Col. 2: MD5 hash of participant's IP address.
#     Col. 3: Controller name.
#     Col. 4: Item number.
#     Col. 5: Element number.
#     Col. 6: Type.
#     Col. 7: Group.
#     Col. 8: html2.
#     Col. 9: startValue.
#     Col. 10: endValue.
#     Col. 11: value.
1565027067,213bd2ec281a2198b8997e793131ca2a,MultiSlider,29,0,EveryNot.All.NoneBias,7,<b>Have any</b> of the infants been changed?,0.00,100.00,97.50
1565027067,213bd2ec281a2198b8997e793131ca2a,MultiSlider,29,0,EveryNot.All.NoneBias,7,<b>How many</b> of the infants have been changed,0.00,100.00,71.50
# The lines below this comment are in groups of 2.
# The formats of the lines in each of these groups are as follows:
#
# Line 1:
#     Col. 1: Time results were received.
#     Col. 2: MD5 hash of participant's IP address.
#     Col. 3: Controller name.
#     Col. 4: Item number.
#     Col. 5: Element number.
#     Col. 6: Type.
#     Col. 7: Group.
#     Col. 8: html.
#     Col. 9: startValue.
#     Col. 10: endValue.
#     Col. 11: value.
#     Col. 12: _REACTION_TIME_.
# Line 2:
#     Col. 1: Time results were received.
#     Col. 2: MD5 hash of participant's IP address.
#     Col. 3: Controller name.
#     Col. 4: Item number.
#     Col. 5: Element number.
#     Col. 6: Type.
#     Col. 7: Group.
#     Col. 8: Sentence (or sentence MD5).
1565027067,213bd2ec281a2198b8997e793131ca2a,MultiSlider,29,0,EveryNot.All.NoneBias,7,<b>Have all</b> of the infants been changed?,0.00,100.00,73.17,59833.00
1565027067,213bd2ec281a2198b8997e793131ca2a,MultiSlider,38,0,EveryNot.Some.NoneBias,10,The city council organized a spelling bee competition. As the competition began%2C the parents wondered if their kids would be able to get anything correct.
# The lines below this comment are in groups of 2.
# The formats of the lines in each of these groups are as follows:
#
# Line 1:
#     Col. 1: Time results were received.
#     Col. 2: MD5 hash of participant's IP address.
#     Col. 3: Controller name.
#     Col. 4: Item number.
#     Col. 5: Element number.
#     Col. 6: Type.
#     Col. 7: Group.
#     Col. 8: Sentence (or sentence MD5).
# Line 2:
#     Col. 1: Time results were received.
#     Col. 2: MD5 hash of participant's IP address.
#     Col. 3: Controller name.
#     Col. 4: Item number.
#     Col. 5: Element number.
#     Col. 6: Type.
#     Col. 7: Group.
#     Col. 8: html1.
#     Col. 9: startValue.
#     Col. 10: endValue.
#     Col. 11: value.
1565027067,213bd2ec281a2198b8997e793131ca2a,MultiSlider,38,0,EveryNot.Some.NoneBias,10,How relevant are the following questions for the story?
1565027067,213bd2ec281a2198b8997e793131ca2a,MultiSlider,38,0,EveryNot.Some.NoneBias,10,Did the kids answer <b> any of </b>the questions correctly?,0.00,100.00,97.50
# Columns below this comment are as follows:
# 1. Time results were received.
# 2. MD5 hash of participant's IP address.
# 3. Controller name.
# 4. Item number.
# 5. Element number.
# 6. Type.
# 7. Group.
# 8. html2.
# 9. startValue.
# 10. endValue.
# 11. value.
1565027067,213bd2ec281a2198b8997e793131ca2a,MultiSlider,38,0,EveryNot.Some.NoneBias,10,<b>How many</b> of the questions did the kids answer correctly?,0.00,100.00,80.17
1565027067,213bd2ec281a2198b8997e793131ca2a,MultiSlider,38,0,EveryNot.Some.NoneBias,10,<b>How many</b> of the questions did the kids answer correctly?,0.00,100.00,63.50
1565027067,213bd2ec281a2198b8997e793131ca2a,MultiSlider,38,0,EveryNot.Some.NoneBias,10,<b>How many</b> of the questions did the kids answer correctly?,0.00,100.00,71.50
# The lines below this comment are in groups of 2.
# The formats of the lines in each of these groups are as follows:
#
# Line 1:
#     Col. 1: Time results were received.
#     Col. 2: MD5 hash of participant's IP address.
#     Col. 3: Controller name.
#     Col. 4: Item number.
#     Col. 5: Element number.
#     Col. 6: Type.
#     Col. 7: Group.
#     Col. 8: html.
#     Col. 9: startValue.
#     Col. 10: endValue.
#     Col. 11: value.
#     Col. 12: _REACTION_TIME_.
# Line 2:
#     Col. 1: Time results were received.
#     Col. 2: MD5 hash of participant's IP address.
#     Col. 3: Controller name.
#     Col. 4: Item number.
#     Col. 5: Element number.
#     Col. 6: Type.
#     Col. 7: Group.
#     Col. 8: Sentence (or sentence MD5).
1565027067,213bd2ec281a2198b8997e793131ca2a,MultiSlider,38,0,EveryNot.Some.NoneBias,10,Did the kids answer <b> all of </b>the questions correctly?,0.00,100.00,66.83,40179.00
1565027067,213bd2ec281a2198b8997e793131ca2a,MultiSlider,20,0,EveryNot.All.NoneBias,4,The couple has been planning their wedding for next month. The bride asks her future husband if he has started writing the invitations.
# The lines below this comment are in groups of 2.
# The formats of the lines in each of these groups are as follows:
#
# Line 1:
#     Col. 1: Time results were received.
#     Col. 2: MD5 hash of participant's IP address.
#     Col. 3: Controller name.
#     Col. 4: Item number.
#     Col. 5: Element number.
#     Col. 6: Type.
#     Col. 7: Group.
#     Col. 8: Sentence (or sentence MD5).
# Line 2:
#     Col. 1: Time results were received.
#     Col. 2: MD5 hash of participant's IP address.
#     Col. 3: Controller name.
#     Col. 4: Item number.
#     Col. 5: Element number.
#     Col. 6: Type.
#     Col. 7: Group.
#     Col. 8: html1.
#     Col. 9: startValue.
#     Col. 10: endValue.
#     Col. 11: value.
1565027067,213bd2ec281a2198b8997e793131ca2a,MultiSlider,20,0,EveryNot.All.NoneBias,4,How relevant are the following questions for the story?
1565027067,213bd2ec281a2198b8997e793131ca2a,MultiSlider,20,0,EveryNot.All.NoneBias,4,<b>Have any</b> of the wedding invitations been written?,0.00,100.00,84.17
# Columns below this comment are as follows:
# 1. Time results were received.
# 2. MD5 hash of participant's IP address.
# 3. Controller name.
# 4. Item number.
# 5. Element number.
# 6. Type.
# 7. Group.
# 8. html2.
# 9. startValue.
# 10. endValue.
# 11. value.
1565027067,213bd2ec281a2198b8997e793131ca2a,MultiSlider,20,0,EveryNot.All.NoneBias,4,<b>How many</b> of the wedding invitations have been written?,0.00,100.00,83.83
1565027067,213bd2ec281a2198b8997e793131ca2a,MultiSlider,20,0,EveryNot.All.NoneBias,4,<b>How many</b> of the wedding invitations have been written?,0.00,100.00,72.17
1565027067,213bd2ec281a2198b8997e793131ca2a,MultiSlider,20,0,EveryNot.All.NoneBias,4,<b>How many</b> of the wedding invitations have been written?,0.00,100.00,65.50
# The lines below this comment are in groups of 2.
# The formats of the lines in each of these groups are as follows:
#
# Line 1:
#     Col. 1: Time results were received.
#     Col. 2: MD5 hash of participant's IP address.
#     Col. 3: Controller name.
#     Col. 4: Item number.
#     Col. 5: Element number.
#     Col. 6: Type.
#     Col. 7: Group.
#     Col. 8: html.
#     Col. 9: startValue.
#     Col. 10: endValue.
#     Col. 11: value.
#     Col. 12: _REACTION_TIME_.
# Line 2:
#     Col. 1: Time results were received.
#     Col. 2: MD5 hash of participant's IP address.
#     Col. 3: Controller name.
#     Col. 4: Item number.
#     Col. 5: Element number.
#     Col. 6: Type.
#     Col. 7: Group.
#     Col. 8: Sentence (or sentence MD5).
1565027067,213bd2ec281a2198b8997e793131ca2a,MultiSlider,20,0,EveryNot.All.NoneBias,4,<b>Have all</b> of the wedding invitations been written?,0.00,100.00,68.50,18603.00
1565027067,213bd2ec281a2198b8997e793131ca2a,MultiSlider,30,0,EveryNot.All.HowManyBias,8,A glamorous cocktail event was being held in the Hilton hotel. When guests arrived%2C the receptionist noted down the number of people who correctly followed the dress code.
# The lines below this comment are in groups of 2.
# The formats of the lines in each of these groups are as follows:
#
# Line 1:
#     Col. 1: Time results were received.
#     Col. 2: MD5 hash of participant's IP address.
#     Col. 3: Controller name.
#     Col. 4: Item number.
#     Col. 5: Element number.
#     Col. 6: Type.
#     Col. 7: Group.
#     Col. 8: Sentence (or sentence MD5).
# Line 2:
#     Col. 1: Time results were received.
#     Col. 2: MD5 hash of participant's IP address.
#     Col. 3: Controller name.
#     Col. 4: Item number.
#     Col. 5: Element number.
#     Col. 6: Type.
#     Col. 7: Group.
#     Col. 8: html1.
#     Col. 9: startValue.
#     Col. 10: endValue.
#     Col. 11: value.
1565027067,213bd2ec281a2198b8997e793131ca2a,MultiSlider,30,0,EveryNot.All.HowManyBias,8,How relevant are the following questions for the story?
1565027067,213bd2ec281a2198b8997e793131ca2a,MultiSlider,30,0,EveryNot.All.HowManyBias,8,<b>Were all</b> of the guests dressed properly?,0.00,100.00,94.83
# The lines below this comment are in groups of 2.
# The formats of the lines in each of these groups are as follows:
#
# Line 1:
#     Col. 1: Time results were received.
#     Col. 2: MD5 hash of participant's IP address.
#     Col. 3: Controller name.
#     Col. 4: Item number.
#     Col. 5: Element number.
#     Col. 6: Type.
#     Col. 7: Group.
#     Col. 8: html1.
#     Col. 9: startValue.
#     Col. 10: endValue.
#     Col. 11: value.
# Line 2:
#     Col. 1: Time results were received.
#     Col. 2: MD5 hash of participant's IP address.
#     Col. 3: Controller name.
#     Col. 4: Item number.
#     Col. 5: Element number.
#     Col. 6: Type.
#     Col. 7: Group.
#     Col. 8: html2.
#     Col. 9: startValue.
#     Col. 10: endValue.
#     Col. 11: value.
1565027067,213bd2ec281a2198b8997e793131ca2a,MultiSlider,30,0,EveryNot.All.HowManyBias,8,<b>Were all</b> of the guests dressed properly?,0.00,100.00,75.17
1565027067,213bd2ec281a2198b8997e793131ca2a,MultiSlider,30,0,EveryNot.All.HowManyBias,8,<b>Were any</b> of the guests dressed properly?,0.00,100.00,72.83
# The lines below this comment are in groups of 2.
# The formats of the lines in each of these groups are as follows:
#
# Line 1:
#     Col. 1: Time results were received.
#     Col. 2: MD5 hash of participant's IP address.
#     Col. 3: Controller name.
#     Col. 4: Item number.
#     Col. 5: Element number.
#     Col. 6: Type.
#     Col. 7: Group.
#     Col. 8: html2.
#     Col. 9: startValue.
#     Col. 10: endValue.
#     Col. 11: value.
# Line 2:
#     Col. 1: Time results were received.
#     Col. 2: MD5 hash of participant's IP address.
#     Col. 3: Controller name.
#     Col. 4: Item number.
#     Col. 5: Element number.
#     Col. 6: Type.
#     Col. 7: Group.
#     Col. 8: html.
#     Col. 9: startValue.
#     Col. 10: endValue.
#     Col. 11: value.
#     Col. 12: _REACTION_TIME_.
1565027067,213bd2ec281a2198b8997e793131ca2a,MultiSlider,30,0,EveryNot.All.HowManyBias,8,<b>Were any</b> of the guests dressed properly?,0.00,100.00,79.50
1565027067,213bd2ec281a2198b8997e793131ca2a,MultiSlider,30,0,EveryNot.All.HowManyBias,8,<b>How many</b> of the guests were dressed properly?,0.00,100.00,98.83,15036.00
# Columns below this comment are as follows:
# 1. Time results were received.
# 2. MD5 hash of participant's IP address.
# 3. Controller name.
# 4. Item number.
# 5. Element number.
# 6. Type.
# 7. Group.
# 8. Sentence (or sentence MD5).
1565027067,213bd2ec281a2198b8997e793131ca2a,MultiSlider,43,0,EveryNot.Some.AllBias,12,Sue and Marc went to a two-day science exhibition. On the first day%2C the organizers approached them and asked if they had seen everything yet.
1565027067,213bd2ec281a2198b8997e793131ca2a,MultiSlider,43,0,EveryNot.Some.AllBias,12,How relevant are the following questions for the story?
# The lines below this comment are in groups of 2.
# The formats of the lines in each of these groups are as follows:
#
# Line 1:
#     Col. 1: Time results were received.
#     Col. 2: MD5 hash of participant's IP address.
#     Col. 3: Controller name.
#     Col. 4: Item number.
#     Col. 5: Element number.
#     Col. 6: Type.
#     Col. 7: Group.
#     Col. 8: html1.
#     Col. 9: startValue.
#     Col. 10: endValue.
#     Col. 11: value.
# Line 2:
#     Col. 1: Time results were received.
#     Col. 2: MD5 hash of participant's IP address.
#     Col. 3: Controller name.
#     Col. 4: Item number.
#     Col. 5: Element number.
#     Col. 6: Type.
#     Col. 7: Group.
#     Col. 8: html2.
#     Col. 9: startValue.
#     Col. 10: endValue.
#     Col. 11: value.
1565027067,213bd2ec281a2198b8997e793131ca2a,MultiSlider,43,0,EveryNot.Some.AllBias,12,<b>How many</b> of the booths have Sue and Marc visited so far?,0.00,100.00,82.17
1565027067,213bd2ec281a2198b8997e793131ca2a,MultiSlider,43,0,EveryNot.Some.AllBias,12,Have Sue and Marc visited<b> all of </b>the booths so far?,0.00,100.00,96.50
# The lines below this comment are in groups of 2.
# The formats of the lines in each of these groups are as follows:
#
# Line 1:
#     Col. 1: Time results were received.
#     Col. 2: MD5 hash of participant's IP address.
#     Col. 3: Controller name.
#     Col. 4: Item number.
#     Col. 5: Element number.
#     Col. 6: Type.
#     Col. 7: Group.
#     Col. 8: html.
#     Col. 9: startValue.
#     Col. 10: endValue.
#     Col. 11: value.
#     Col. 12: _REACTION_TIME_.
# Line 2:
#     Col. 1: Time results were received.
#     Col. 2: MD5 hash of participant's IP address.
#     Col. 3: Controller name.
#     Col. 4: Item number.
#     Col. 5: Element number.
#     Col. 6: Type.
#     Col. 7: Group.
#     Col. 8: Sentence (or sentence MD5).
1565027067,213bd2ec281a2198b8997e793131ca2a,MultiSlider,43,0,EveryNot.Some.AllBias,12,Have Sue and Marc visited<b> any of </b>the booths so far?,0.00,100.00,58.83,27460.00
1565027067,213bd2ec281a2198b8997e793131ca2a,MultiSlider,25,0,EveryNot.All.AllBias,6,Eric is a professional producer working on a new album. One day%2C he called the composer  to remind him that all the new songs need to have been demoed already.
# The lines below this comment are in groups of 2.
# The formats of the lines in each of these groups are as follows:
#
# Line 1:
#     Col. 1: Time results were received.
#     Col. 2: MD5 hash of participant's IP address.
#     Col. 3: Controller name.
#     Col. 4: Item number.
#     Col. 5: Element number.
#     Col. 6: Type.
#     Col. 7: Group.
#     Col. 8: Sentence (or sentence MD5).
# Line 2:
#     Col. 1: Time results were received.
#     Col. 2: MD5 hash of participant's IP address.
#     Col. 3: Controller name.
#     Col. 4: Item number.
#     Col. 5: Element number.
#     Col. 6: Type.
#     Col. 7: Group.
#     Col. 8: html1.
#     Col. 9: startValue.
#     Col. 10: endValue.
#     Col. 11: value.
1565027067,213bd2ec281a2198b8997e793131ca2a,MultiSlider,25,0,EveryNot.All.AllBias,6,How relevant are the following questions for the story?
1565027067,213bd2ec281a2198b8997e793131ca2a,MultiSlider,25,0,EveryNot.All.AllBias,6,<b>How many</b> of the new songs have been demoed?,0.00,100.00,67.17
# The lines below this comment are in groups of 2.
# The formats of the lines in each of these groups are as follows:
#
# Line 1:
#     Col. 1: Time results were received.
#     Col. 2: MD5 hash of participant's IP address.
#     Col. 3: Controller name.
#     Col. 4: Item number.
#     Col. 5: Element number.
#     Col. 6: Type.
#     Col. 7: Group.
#     Col. 8: html1.
#     Col. 9: startValue.
#     Col. 10: endValue.
#     Col. 11: value.
# Line 2:
#     Col. 1: Time results were received.
#     Col. 2: MD5 hash of participant's IP address.
#     Col. 3: Controller name.
#     Col. 4: Item number.
#     Col. 5: Element number.
#     Col. 6: Type.
#     Col. 7: Group.
#     Col. 8: html2.
#     Col. 9: startValue.
#     Col. 10: endValue.
#     Col. 11: value.
1565027067,213bd2ec281a2198b8997e793131ca2a,MultiSlider,25,0,EveryNot.All.AllBias,6,<b>How many</b> of the new songs have been demoed?,0.00,100.00,29.17
1565027067,213bd2ec281a2198b8997e793131ca2a,MultiSlider,25,0,EveryNot.All.AllBias,6,<b>Have all</b> of the new songs been demoed?,0.00,100.00,98.50
# The lines below this comment are in groups of 2.
# The formats of the lines in each of these groups are as follows:
#
# Line 1:
#     Col. 1: Time results were received.
#     Col. 2: MD5 hash of participant's IP address.
#     Col. 3: Controller name.
#     Col. 4: Item number.
#     Col. 5: Element number.
#     Col. 6: Type.
#     Col. 7: Group.
#     Col. 8: html.
#     Col. 9: startValue.
#     Col. 10: endValue.
#     Col. 11: value.
#     Col. 12: _REACTION_TIME_.
# Line 2:
#     Col. 1: Time results were received.
#     Col. 2: MD5 hash of participant's IP address.
#     Col. 3: Controller name.
#     Col. 4: Item number.
#     Col. 5: Element number.
#     Col. 6: Type.
#     Col. 7: Group.
#     Col. 8: Sentence (or sentence MD5).
1565027067,213bd2ec281a2198b8997e793131ca2a,MultiSlider,25,0,EveryNot.All.AllBias,6,<b>Have any</b> of the new songs been demoed?,0.00,100.00,25.50,27120.00
1565027067,213bd2ec281a2198b8997e793131ca2a,MultiSlider,39,0,EveryNot.Some.HowManyBias,11,The local community organized a flea market last weekend. The sellers  all tried very hard to close as many sales as they could.
# The lines below this comment are in groups of 2.
# The formats of the lines in each of these groups are as follows:
#
# Line 1:
#     Col. 1: Time results were received.
#     Col. 2: MD5 hash of participant's IP address.
#     Col. 3: Controller name.
#     Col. 4: Item number.
#     Col. 5: Element number.
#     Col. 6: Type.
#     Col. 7: Group.
#     Col. 8: Sentence (or sentence MD5).
# Line 2:
#     Col. 1: Time results were received.
#     Col. 2: MD5 hash of participant's IP address.
#     Col. 3: Controller name.
#     Col. 4: Item number.
#     Col. 5: Element number.
#     Col. 6: Type.
#     Col. 7: Group.
#     Col. 8: html1.
#     Col. 9: startValue.
#     Col. 10: endValue.
#     Col. 11: value.
1565027067,213bd2ec281a2198b8997e793131ca2a,MultiSlider,39,0,EveryNot.Some.HowManyBias,11,How relevant are the following questions for the story?
1565027067,213bd2ec281a2198b8997e793131ca2a,MultiSlider,39,0,EveryNot.Some.HowManyBias,11,<b>Were all</b> of the sales closed in the end?,0.00,100.00,79.83
# The lines below this comment are in groups of 2.
# The formats of the lines in each of these groups are as follows:
#
# Line 1:
#     Col. 1: Time results were received.
#     Col. 2: MD5 hash of participant's IP address.
#     Col. 3: Controller name.
#     Col. 4: Item number.
#     Col. 5: Element number.
#     Col. 6: Type.
#     Col. 7: Group.
#     Col. 8: html1.
#     Col. 9: startValue.
#     Col. 10: endValue.
#     Col. 11: value.
# Line 2:
#     Col. 1: Time results were received.
#     Col. 2: MD5 hash of participant's IP address.
#     Col. 3: Controller name.
#     Col. 4: Item number.
#     Col. 5: Element number.
#     Col. 6: Type.
#     Col. 7: Group.
#     Col. 8: html2.
#     Col. 9: startValue.
#     Col. 10: endValue.
#     Col. 11: value.
1565027067,213bd2ec281a2198b8997e793131ca2a,MultiSlider,39,0,EveryNot.Some.HowManyBias,11,<b>Were all</b> of the sales closed in the end?,0.00,100.00,69.17
1565027067,213bd2ec281a2198b8997e793131ca2a,MultiSlider,39,0,EveryNot.Some.HowManyBias,11,<b>Were any</b> of the sales closed in the end?,0.00,100.00,24.83
# The lines below this comment are in groups of 2.
# The formats of the lines in each of these groups are as follows:
#
# Line 1:
#     Col. 1: Time results were received.
#     Col. 2: MD5 hash of participant's IP address.
#     Col. 3: Controller name.
#     Col. 4: Item number.
#     Col. 5: Element number.
#     Col. 6: Type.
#     Col. 7: Group.
#     Col. 8: html2.
#     Col. 9: startValue.
#     Col. 10: endValue.
#     Col. 11: value.
# Line 2:
#     Col. 1: Time results were received.
#     Col. 2: MD5 hash of participant's IP address.
#     Col. 3: Controller name.
#     Col. 4: Item number.
#     Col. 5: Element number.
#     Col. 6: Type.
#     Col. 7: Group.
#     Col. 8: html.
#     Col. 9: startValue.
#     Col. 10: endValue.
#     Col. 11: value.
#     Col. 12: _REACTION_TIME_.
1565027067,213bd2ec281a2198b8997e793131ca2a,MultiSlider,39,0,EveryNot.Some.HowManyBias,11,<b>Were any</b> of the sales closed in the end?,0.00,100.00,52.83
1565027067,213bd2ec281a2198b8997e793131ca2a,MultiSlider,39,0,EveryNot.Some.HowManyBias,11,<b>How many</b> of the sales were closed in the end?,0.00,100.00,94.83,20152.00
# Columns below this comment are as follows:
# 1. Time results were received.
# 2. MD5 hash of participant's IP address.
# 3. Controller name.
# 4. Item number.
# 5. Element number.
# 6. Type.
# 7. Group.
# 8. Sentence (or sentence MD5).
1565027067,213bd2ec281a2198b8997e793131ca2a,MultiSlider,56,0,EveryNot.Some.NoneBias,16,A tech start-up is facing some financial issues. During an HR meeting%2C the board debated whether they had to downsize.
1565027067,213bd2ec281a2198b8997e793131ca2a,MultiSlider,56,0,EveryNot.Some.NoneBias,16,How relevant are the following questions for the story?
# The lines below this comment are in groups of 2.
# The formats of the lines in each of these groups are as follows:
#
# Line 1:
#     Col. 1: Time results were received.
#     Col. 2: MD5 hash of participant's IP address.
#     Col. 3: Controller name.
#     Col. 4: Item number.
#     Col. 5: Element number.
#     Col. 6: Type.
#     Col. 7: Group.
#     Col. 8: html1.
#     Col. 9: startValue.
#     Col. 10: endValue.
#     Col. 11: value.
# Line 2:
#     Col. 1: Time results were received.
#     Col. 2: MD5 hash of participant's IP address.
#     Col. 3: Controller name.
#     Col. 4: Item number.
#     Col. 5: Element number.
#     Col. 6: Type.
#     Col. 7: Group.
#     Col. 8: html2.
#     Col. 9: startValue.
#     Col. 10: endValue.
#     Col. 11: value.
1565027067,213bd2ec281a2198b8997e793131ca2a,MultiSlider,56,0,EveryNot.Some.NoneBias,16,Will<b> any of </b>of the employees be fired?,0.00,100.00,95.50
1565027067,213bd2ec281a2198b8997e793131ca2a,MultiSlider,56,0,EveryNot.Some.NoneBias,16,<b>How many</b> of the employees will be fired?,0.00,100.00,6.50
# Columns below this comment are as follows:
# 1. Time results were received.
# 2. MD5 hash of participant's IP address.
# 3. Controller name.
# 4. Item number.
# 5. Element number.
# 6. Type.
# 7. Group.
# 8. html2.
# 9. startValue.
# 10. endValue.
# 11. value.
1565027067,213bd2ec281a2198b8997e793131ca2a,MultiSlider,56,0,EveryNot.Some.NoneBias,16,<b>How many</b> of the employees will be fired?,0.00,100.00,47.17
1565027067,213bd2ec281a2198b8997e793131ca2a,MultiSlider,56,0,EveryNot.Some.NoneBias,16,<b>How many</b> of the employees will be fired?,0.00,100.00,68.50
# The lines below this comment are in groups of 2.
# The formats of the lines in each of these groups are as follows:
#
# Line 1:
#     Col. 1: Time results were received.
#     Col. 2: MD5 hash of participant's IP address.
#     Col. 3: Controller name.
#     Col. 4: Item number.
#     Col. 5: Element number.
#     Col. 6: Type.
#     Col. 7: Group.
#     Col. 8: html.
#     Col. 9: startValue.
#     Col. 10: endValue.
#     Col. 11: value.
#     Col. 12: _REACTION_TIME_.
# Line 2:
#     Col. 1: Time results were received.
#     Col. 2: MD5 hash of participant's IP address.
#     Col. 3: Controller name.
#     Col. 4: Item number.
#     Col. 5: Element number.
#     Col. 6: Type.
#     Col. 7: Group.
#     Col. 8: Sentence (or sentence MD5).
1565027067,213bd2ec281a2198b8997e793131ca2a,MultiSlider,56,0,EveryNot.Some.NoneBias,16,Will<b> all of </b>of the employees be fired?,0.00,100.00,7.50,25040.00
1565027067,213bd2ec281a2198b8997e793131ca2a,MultiSlider,52,0,EveryNot.Some.AllBias,15,Barney has been submitting recipes to a famous cooking website for some time now. His partner asked whether all of his submissions had been posted on the website.
# The lines below this comment are in groups of 2.
# The formats of the lines in each of these groups are as follows:
#
# Line 1:
#     Col. 1: Time results were received.
#     Col. 2: MD5 hash of participant's IP address.
#     Col. 3: Controller name.
#     Col. 4: Item number.
#     Col. 5: Element number.
#     Col. 6: Type.
#     Col. 7: Group.
#     Col. 8: Sentence (or sentence MD5).
# Line 2:
#     Col. 1: Time results were received.
#     Col. 2: MD5 hash of participant's IP address.
#     Col. 3: Controller name.
#     Col. 4: Item number.
#     Col. 5: Element number.
#     Col. 6: Type.
#     Col. 7: Group.
#     Col. 8: html1.
#     Col. 9: startValue.
#     Col. 10: endValue.
#     Col. 11: value.
1565027067,213bd2ec281a2198b8997e793131ca2a,MultiSlider,52,0,EveryNot.Some.AllBias,15,How relevant are the following questions for the story?
1565027067,213bd2ec281a2198b8997e793131ca2a,MultiSlider,52,0,EveryNot.Some.AllBias,15,<b>How many</b> of Barney's submissions have been published?,0.00,100.00,70.50
# The lines below this comment are in groups of 2.
# The formats of the lines in each of these groups are as follows:
#
# Line 1:
#     Col. 1: Time results were received.
#     Col. 2: MD5 hash of participant's IP address.
#     Col. 3: Controller name.
#     Col. 4: Item number.
#     Col. 5: Element number.
#     Col. 6: Type.
#     Col. 7: Group.
#     Col. 8: html2.
#     Col. 9: startValue.
#     Col. 10: endValue.
#     Col. 11: value.
# Line 2:
#     Col. 1: Time results were received.
#     Col. 2: MD5 hash of participant's IP address.
#     Col. 3: Controller name.
#     Col. 4: Item number.
#     Col. 5: Element number.
#     Col. 6: Type.
#     Col. 7: Group.
#     Col. 8: html.
#     Col. 9: startValue.
#     Col. 10: endValue.
#     Col. 11: value.
#     Col. 12: _REACTION_TIME_.
1565027067,213bd2ec281a2198b8997e793131ca2a,MultiSlider,52,0,EveryNot.Some.AllBias,15,<b>Have all</b> of Barney's submissions been published?,0.00,100.00,97.83
1565027067,213bd2ec281a2198b8997e793131ca2a,MultiSlider,52,0,EveryNot.Some.AllBias,15,<b>Have any</b> of Barney's submissions been published?,0.00,100.00,50.00,18706.00
# Columns below this comment are as follows:
# 1. Time results were received.
# 2. MD5 hash of participant's IP address.
# 3. Controller name.
# 4. Item number.
# 5. Element number.
# 6. Type.
# 7. Group.
# 8. Sentence (or sentence MD5).
1565027067,213bd2ec281a2198b8997e793131ca2a,MultiSlider,16,0,EveryNot.All.AllBias,3,Rachel is an industrious teaching assistant who has to grade student essays. After a week%2C her boss asks if she is ready to enter the grades into the school system.
1565027067,213bd2ec281a2198b8997e793131ca2a,MultiSlider,16,0,EveryNot.All.AllBias,3,How relevant are the following questions for the story?
# The lines below this comment are in groups of 2.
# The formats of the lines in each of these groups are as follows:
#
# Line 1:
#     Col. 1: Time results were received.
#     Col. 2: MD5 hash of participant's IP address.
#     Col. 3: Controller name.
#     Col. 4: Item number.
#     Col. 5: Element number.
#     Col. 6: Type.
#     Col. 7: Group.
#     Col. 8: html1.
#     Col. 9: startValue.
#     Col. 10: endValue.
#     Col. 11: value.
# Line 2:
#     Col. 1: Time results were received.
#     Col. 2: MD5 hash of participant's IP address.
#     Col. 3: Controller name.
#     Col. 4: Item number.
#     Col. 5: Element number.
#     Col. 6: Type.
#     Col. 7: Group.
#     Col. 8: html2.
#     Col. 9: startValue.
#     Col. 10: endValue.
#     Col. 11: value.
1565027067,213bd2ec281a2198b8997e793131ca2a,MultiSlider,16,0,EveryNot.All.AllBias,3,<b>How many</b> of the student essays were graded?,0.00,100.00,71.17
1565027067,213bd2ec281a2198b8997e793131ca2a,MultiSlider,16,0,EveryNot.All.AllBias,3,<b>Were all</b> of the student essays graded?,0.00,100.00,99.50
# The lines below this comment are in groups of 2.
# The formats of the lines in each of these groups are as follows:
#
# Line 1:
#     Col. 1: Time results were received.
#     Col. 2: MD5 hash of participant's IP address.
#     Col. 3: Controller name.
#     Col. 4: Item number.
#     Col. 5: Element number.
#     Col. 6: Type.
#     Col. 7: Group.
#     Col. 8: html.
#     Col. 9: startValue.
#     Col. 10: endValue.
#     Col. 11: value.
#     Col. 12: _REACTION_TIME_.
# Line 2:
#     Col. 1: Time results were received.
#     Col. 2: MD5 hash of participant's IP address.
#     Col. 3: Controller name.
#     Col. 4: Item number.
#     Col. 5: Element number.
#     Col. 6: Type.
#     Col. 7: Group.
#     Col. 8: Sentence (or sentence MD5).
1565027067,213bd2ec281a2198b8997e793131ca2a,MultiSlider,16,0,EveryNot.All.AllBias,3,<b>Were any</b> of the student essays graded?,0.00,100.00,68.17,51276.00
1565027067,213bd2ec281a2198b8997e793131ca2a,MultiSlider,75,0,EveryNot.None.HowManyBias,23,The hospital has the best doctors in the country. One day%2C five patients had to be operated on for fractures in arms and legs. Afterwards%2C a news reporter asked how many of the patients had been successfully treated.
# The lines below this comment are in groups of 2.
# The formats of the lines in each of these groups are as follows:
#
# Line 1:
#     Col. 1: Time results were received.
#     Col. 2: MD5 hash of participant's IP address.
#     Col. 3: Controller name.
#     Col. 4: Item number.
#     Col. 5: Element number.
#     Col. 6: Type.
#     Col. 7: Group.
#     Col. 8: Sentence (or sentence MD5).
# Line 2:
#     Col. 1: Time results were received.
#     Col. 2: MD5 hash of participant's IP address.
#     Col. 3: Controller name.
#     Col. 4: Item number.
#     Col. 5: Element number.
#     Col. 6: Type.
#     Col. 7: Group.
#     Col. 8: html1.
#     Col. 9: startValue.
#     Col. 10: endValue.
#     Col. 11: value.
1565027067,213bd2ec281a2198b8997e793131ca2a,MultiSlider,75,0,EveryNot.None.HowManyBias,23,How relevant are the following questions for the story?
1565027067,213bd2ec281a2198b8997e793131ca2a,MultiSlider,75,0,EveryNot.None.HowManyBias,23,<b>Were all</b> of the operations successful?,0.00,100.00,10.50
# The lines below this comment are in groups of 2.
# The formats of the lines in each of these groups are as follows:
#
# Line 1:
#     Col. 1: Time results were received.
#     Col. 2: MD5 hash of participant's IP address.
#     Col. 3: Controller name.
#     Col. 4: Item number.
#     Col. 5: Element number.
#     Col. 6: Type.
#     Col. 7: Group.
#     Col. 8: html2.
#     Col. 9: startValue.
#     Col. 10: endValue.
#     Col. 11: value.
# Line 2:
#     Col. 1: Time results were received.
#     Col. 2: MD5 hash of participant's IP address.
#     Col. 3: Controller name.
#     Col. 4: Item number.
#     Col. 5: Element number.
#     Col. 6: Type.
#     Col. 7: Group.
#     Col. 8: html.
#     Col. 9: startValue.
#     Col. 10: endValue.
#     Col. 11: value.
#     Col. 12: _REACTION_TIME_.
1565027067,213bd2ec281a2198b8997e793131ca2a,MultiSlider,75,0,EveryNot.None.HowManyBias,23,<b>Were any</b> of the operations successful?,0.00,100.00,8.83
1565027067,213bd2ec281a2198b8997e793131ca2a,MultiSlider,75,0,EveryNot.None.HowManyBias,23,<b>How many</b> of the operations were successful?,0.00,100.00,98.17,21831.00
# Columns below this comment are as follows:
# 1. Time results were received.
# 2. MD5 hash of participant's IP address.
# 3. Controller name.
# 4. Item number.
# 5. Element number.
# 6. Type.
# 7. Group.
# 8. Sentence (or sentence MD5).
1565027067,213bd2ec281a2198b8997e793131ca2a,MultiSlider,34,0,EveryNot.Some.AllBias,9,The teacher has just finished correcting exams. The dean wants an update because the school will receive an increase in federal funds if all of the students passed.
1565027067,213bd2ec281a2198b8997e793131ca2a,MultiSlider,34,0,EveryNot.Some.AllBias,9,How relevant are the following questions for the story?
# The lines below this comment are in groups of 2.
# The formats of the lines in each of these groups are as follows:
#
# Line 1:
#     Col. 1: Time results were received.
#     Col. 2: MD5 hash of participant's IP address.
#     Col. 3: Controller name.
#     Col. 4: Item number.
#     Col. 5: Element number.
#     Col. 6: Type.
#     Col. 7: Group.
#     Col. 8: html1.
#     Col. 9: startValue.
#     Col. 10: endValue.
#     Col. 11: value.
# Line 2:
#     Col. 1: Time results were received.
#     Col. 2: MD5 hash of participant's IP address.
#     Col. 3: Controller name.
#     Col. 4: Item number.
#     Col. 5: Element number.
#     Col. 6: Type.
#     Col. 7: Group.
#     Col. 8: html2.
#     Col. 9: startValue.
#     Col. 10: endValue.
#     Col. 11: value.
1565027067,213bd2ec281a2198b8997e793131ca2a,MultiSlider,34,0,EveryNot.Some.AllBias,9,<b>How many</b> of the students passed the exam?,0.00,100.00,97.50
1565027067,213bd2ec281a2198b8997e793131ca2a,MultiSlider,34,0,EveryNot.Some.AllBias,9,<b>Did all</b> of the students pass the exam?,0.00,100.00,95.50
# The lines below this comment are in groups of 2.
# The formats of the lines in each of these groups are as follows:
#
# Line 1:
#     Col. 1: Time results were received.
#     Col. 2: MD5 hash of participant's IP address.
#     Col. 3: Controller name.
#     Col. 4: Item number.
#     Col. 5: Element number.
#     Col. 6: Type.
#     Col. 7: Group.
#     Col. 8: html.
#     Col. 9: startValue.
#     Col. 10: endValue.
#     Col. 11: value.
#     Col. 12: _REACTION_TIME_.
# Line 2:
#     Col. 1: Time results were received.
#     Col. 2: MD5 hash of participant's IP address.
#     Col. 3: Controller name.
#     Col. 4: Item number.
#     Col. 5: Element number.
#     Col. 6: Type.
#     Col. 7: Group.
#     Col. 8: Sentence (or sentence MD5).
1565027067,213bd2ec281a2198b8997e793131ca2a,MultiSlider,34,0,EveryNot.Some.AllBias,9,<b>Did any</b> of the students pass the exam?,0.00,100.00,93.17,15529.00
1565027067,213bd2ec281a2198b8997e793131ca2a,MultiSlider,61,0,EveryNot.None.AllBias,18,Paul lives on a sheep farm his parents bought for him%2C but plays video games all day. His parents called him and warned him that he must sell the entire herd to be able to continue living at the farm.
# The lines below this comment are in groups of 2.
# The formats of the lines in each of these groups are as follows:
#
# Line 1:
#     Col. 1: Time results were received.
#     Col. 2: MD5 hash of participant's IP address.
#     Col. 3: Controller name.
#     Col. 4: Item number.
#     Col. 5: Element number.
#     Col. 6: Type.
#     Col. 7: Group.
#     Col. 8: Sentence (or sentence MD5).
# Line 2:
#     Col. 1: Time results were received.
#     Col. 2: MD5 hash of participant's IP address.
#     Col. 3: Controller name.
#     Col. 4: Item number.
#     Col. 5: Element number.
#     Col. 6: Type.
#     Col. 7: Group.
#     Col. 8: html1.
#     Col. 9: startValue.
#     Col. 10: endValue.
#     Col. 11: value.
1565027067,213bd2ec281a2198b8997e793131ca2a,MultiSlider,61,0,EveryNot.None.AllBias,18,How relevant are the following questions for the story?
1565027067,213bd2ec281a2198b8997e793131ca2a,MultiSlider,61,0,EveryNot.None.AllBias,18,<b>How many</b> of the sheep have been sold?,0.00,100.00,93.83
# Columns below this comment are as follows:
# 1. Time results were received.
# 2. MD5 hash of participant's IP address.
# 3. Controller name.
# 4. Item number.
# 5. Element number.
# 6. Type.
# 7. Group.
# 8. html1.
# 9. startValue.
# 10. endValue.
# 11. value.
1565027067,213bd2ec281a2198b8997e793131ca2a,MultiSlider,61,0,EveryNot.None.AllBias,18,<b>How many</b> of the sheep have been sold?,0.00,100.00,17.50
1565027067,213bd2ec281a2198b8997e793131ca2a,MultiSlider,61,0,EveryNot.None.AllBias,18,<b>How many</b> of the sheep have been sold?,0.00,100.00,68.83
1565027067,213bd2ec281a2198b8997e793131ca2a,MultiSlider,61,0,EveryNot.None.AllBias,18,<b>How many</b> of the sheep have been sold?,0.00,100.00,76.50
# The lines below this comment are in groups of 2.
# The formats of the lines in each of these groups are as follows:
#
# Line 1:
#     Col. 1: Time results were received.
#     Col. 2: MD5 hash of participant's IP address.
#     Col. 3: Controller name.
#     Col. 4: Item number.
#     Col. 5: Element number.
#     Col. 6: Type.
#     Col. 7: Group.
#     Col. 8: html2.
#     Col. 9: startValue.
#     Col. 10: endValue.
#     Col. 11: value.
# Line 2:
#     Col. 1: Time results were received.
#     Col. 2: MD5 hash of participant's IP address.
#     Col. 3: Controller name.
#     Col. 4: Item number.
#     Col. 5: Element number.
#     Col. 6: Type.
#     Col. 7: Group.
#     Col. 8: html.
#     Col. 9: startValue.
#     Col. 10: endValue.
#     Col. 11: value.
#     Col. 12: _REACTION_TIME_.
1565027067,213bd2ec281a2198b8997e793131ca2a,MultiSlider,61,0,EveryNot.None.AllBias,18,<b>Have all</b> of the sheep been sold?,0.00,100.00,96.83
1565027067,213bd2ec281a2198b8997e793131ca2a,MultiSlider,61,0,EveryNot.None.AllBias,18,<b>Have any</b> of the sheep been sold?,0.00,100.00,50.00,21446.00
# Columns below this comment are as follows:
# 1. Time results were received.
# 2. MD5 hash of participant's IP address.
# 3. Controller name.
# 4. Item number.
# 5. Element number.
# 6. Type.
# 7. Group.
# 8. Field name.
# 9. Field value.
1565027067,213bd2ec281a2198b8997e793131ca2a,Form,8,0,end_experiment,NULL,_REACTION_TIME_,2650
#
# Results on Monday August 05 2019 17:56:03 UTC.
# USER AGENT: Mozilla/5.0 (Windows NT 6.3; Win64; x64) AppleWebKit/537.36 (KHTML, like Gecko) Chrome/67.0.3396.79 Safari/537.36
# Design number was non-random = 4
#
# Columns below this comment are as follows:
# 1. Time results were received.
# 2. MD5 hash of participant's IP address.
# 3. Controller name.
# 4. Item number.
# 5. Element number.
# 6. Type.
# 7. Group.
# 8. Field name.
# 9. Field value.
1565027763,c6b25bf9d57ab54aed7678352cc06dcd,Form,7,0,consent,NULL,consent,yes
1565027763,c6b25bf9d57ab54aed7678352cc06dcd,Form,7,0,consent,NULL,_REACTION_TIME_,12520
1565027763,c6b25bf9d57ab54aed7678352cc06dcd,Form,1,0,intro,NULL,age,34
1565027763,c6b25bf9d57ab54aed7678352cc06dcd,Form,1,0,intro,NULL,natlang,English
1565027763,c6b25bf9d57ab54aed7678352cc06dcd,Form,1,0,intro,NULL,otherlang,no
1565027763,c6b25bf9d57ab54aed7678352cc06dcd,Form,1,0,intro,NULL,Prolific,5a03d20a7ecfc50001be0a7a
1565027763,c6b25bf9d57ab54aed7678352cc06dcd,Form,1,0,intro,NULL,gender,female
1565027763,c6b25bf9d57ab54aed7678352cc06dcd,Form,1,0,intro,NULL,_REACTION_TIME_,18537
1565027763,c6b25bf9d57ab54aed7678352cc06dcd,Form,2,0,intro1,NULL,_REACTION_TIME_,5736
1565027763,c6b25bf9d57ab54aed7678352cc06dcd,Form,3,0,intro2,NULL,_REACTION_TIME_,19137
1565027763,c6b25bf9d57ab54aed7678352cc06dcd,Form,4,0,intro3,NULL,_REACTION_TIME_,15594
# Columns below this comment are as follows:
# 1. Time results were received.
# 2. MD5 hash of participant's IP address.
# 3. Controller name.
# 4. Item number.
# 5. Element number.
# 6. Type.
# 7. Group.
# 8. Sentence (or sentence MD5).
1565027763,c6b25bf9d57ab54aed7678352cc06dcd,MultiSlider,51,0,EveryNot.Some.HowManyBias,15,Barney has been submitting recipes to a famous cooking website for some time now. His partner asked how successful his submissions had been.
1565027763,c6b25bf9d57ab54aed7678352cc06dcd,MultiSlider,51,0,EveryNot.Some.HowManyBias,15,How relevant are the following questions for the story?
# Columns below this comment are as follows:
# 1. Time results were received.
# 2. MD5 hash of participant's IP address.
# 3. Controller name.
# 4. Item number.
# 5. Element number.
# 6. Type.
# 7. Group.
# 8. html1.
# 9. startValue.
# 10. endValue.
# 11. value.
1565027763,c6b25bf9d57ab54aed7678352cc06dcd,MultiSlider,51,0,EveryNot.Some.HowManyBias,15,<b>How many</b> of Barney's submissions have been published?,0.00,100.00,72.17
1565027763,c6b25bf9d57ab54aed7678352cc06dcd,MultiSlider,51,0,EveryNot.Some.HowManyBias,15,<b>How many</b> of Barney's submissions have been published?,0.00,100.00,97.17
# The lines below this comment are in groups of 2.
# The formats of the lines in each of these groups are as follows:
#
# Line 1:
#     Col. 1: Time results were received.
#     Col. 2: MD5 hash of participant's IP address.
#     Col. 3: Controller name.
#     Col. 4: Item number.
#     Col. 5: Element number.
#     Col. 6: Type.
#     Col. 7: Group.
#     Col. 8: html2.
#     Col. 9: startValue.
#     Col. 10: endValue.
#     Col. 11: value.
# Line 2:
#     Col. 1: Time results were received.
#     Col. 2: MD5 hash of participant's IP address.
#     Col. 3: Controller name.
#     Col. 4: Item number.
#     Col. 5: Element number.
#     Col. 6: Type.
#     Col. 7: Group.
#     Col. 8: html.
#     Col. 9: startValue.
#     Col. 10: endValue.
#     Col. 11: value.
#     Col. 12: _REACTION_TIME_.
1565027763,c6b25bf9d57ab54aed7678352cc06dcd,MultiSlider,51,0,EveryNot.Some.HowManyBias,15,<b>Have all</b> of Barney's submissions been published?,0.00,100.00,21.50
1565027763,c6b25bf9d57ab54aed7678352cc06dcd,MultiSlider,51,0,EveryNot.Some.HowManyBias,15,<b>Have any</b> of Barney's submissions been published?,0.00,100.00,96.83,22591.00
# Columns below this comment are as follows:
# 1. Time results were received.
# 2. MD5 hash of participant's IP address.
# 3. Controller name.
# 4. Item number.
# 5. Element number.
# 6. Type.
# 7. Group.
# 8. Sentence (or sentence MD5).
1565027763,c6b25bf9d57ab54aed7678352cc06dcd,MultiSlider,42,0,EveryNot.Some.HowManyBias,12,Sue and Marc went to a two-day science exhibition. On the first day%2C the organizers approached them and asked about the number of booths they had checked off the map so far.
1565027763,c6b25bf9d57ab54aed7678352cc06dcd,MultiSlider,42,0,EveryNot.Some.HowManyBias,12,How relevant are the following questions for the story?
# The lines below this comment are in groups of 2.
# The formats of the lines in each of these groups are as follows:
#
# Line 1:
#     Col. 1: Time results were received.
#     Col. 2: MD5 hash of participant's IP address.
#     Col. 3: Controller name.
#     Col. 4: Item number.
#     Col. 5: Element number.
#     Col. 6: Type.
#     Col. 7: Group.
#     Col. 8: html1.
#     Col. 9: startValue.
#     Col. 10: endValue.
#     Col. 11: value.
# Line 2:
#     Col. 1: Time results were received.
#     Col. 2: MD5 hash of participant's IP address.
#     Col. 3: Controller name.
#     Col. 4: Item number.
#     Col. 5: Element number.
#     Col. 6: Type.
#     Col. 7: Group.
#     Col. 8: html2.
#     Col. 9: startValue.
#     Col. 10: endValue.
#     Col. 11: value.
1565027763,c6b25bf9d57ab54aed7678352cc06dcd,MultiSlider,42,0,EveryNot.Some.HowManyBias,12,<b>How many</b> of the booths have Sue and Marc visited so far?,0.00,100.00,98.50
1565027763,c6b25bf9d57ab54aed7678352cc06dcd,MultiSlider,42,0,EveryNot.Some.HowManyBias,12,Have Sue and Marc visited<b> all of </b>the booths so far?,0.00,100.00,33.17
# The lines below this comment are in groups of 2.
# The formats of the lines in each of these groups are as follows:
#
# Line 1:
#     Col. 1: Time results were received.
#     Col. 2: MD5 hash of participant's IP address.
#     Col. 3: Controller name.
#     Col. 4: Item number.
#     Col. 5: Element number.
#     Col. 6: Type.
#     Col. 7: Group.
#     Col. 8: html.
#     Col. 9: startValue.
#     Col. 10: endValue.
#     Col. 11: value.
#     Col. 12: _REACTION_TIME_.
# Line 2:
#     Col. 1: Time results were received.
#     Col. 2: MD5 hash of participant's IP address.
#     Col. 3: Controller name.
#     Col. 4: Item number.
#     Col. 5: Element number.
#     Col. 6: Type.
#     Col. 7: Group.
#     Col. 8: Sentence (or sentence MD5).
1565027763,c6b25bf9d57ab54aed7678352cc06dcd,MultiSlider,42,0,EveryNot.Some.HowManyBias,12,Have Sue and Marc visited<b> any of </b>the booths so far?,0.00,100.00,10.17,22878.00
1565027763,c6b25bf9d57ab54aed7678352cc06dcd,MultiSlider,28,0,EveryNot.All.AllBias,7,The nursery normally changes infants' diapers before they go to nap. This afternoon%2C a health inspector wanted to make sure all of the infants had been changed before nap time.
# The lines below this comment are in groups of 2.
# The formats of the lines in each of these groups are as follows:
#
# Line 1:
#     Col. 1: Time results were received.
#     Col. 2: MD5 hash of participant's IP address.
#     Col. 3: Controller name.
#     Col. 4: Item number.
#     Col. 5: Element number.
#     Col. 6: Type.
#     Col. 7: Group.
#     Col. 8: Sentence (or sentence MD5).
# Line 2:
#     Col. 1: Time results were received.
#     Col. 2: MD5 hash of participant's IP address.
#     Col. 3: Controller name.
#     Col. 4: Item number.
#     Col. 5: Element number.
#     Col. 6: Type.
#     Col. 7: Group.
#     Col. 8: html1.
#     Col. 9: startValue.
#     Col. 10: endValue.
#     Col. 11: value.
1565027763,c6b25bf9d57ab54aed7678352cc06dcd,MultiSlider,28,0,EveryNot.All.AllBias,7,How relevant are the following questions for the story?
1565027763,c6b25bf9d57ab54aed7678352cc06dcd,MultiSlider,28,0,EveryNot.All.AllBias,7,<b>Have any</b> of the infants been changed?,0.00,100.00,64.17
# The lines below this comment are in groups of 2.
# The formats of the lines in each of these groups are as follows:
#
# Line 1:
#     Col. 1: Time results were received.
#     Col. 2: MD5 hash of participant's IP address.
#     Col. 3: Controller name.
#     Col. 4: Item number.
#     Col. 5: Element number.
#     Col. 6: Type.
#     Col. 7: Group.
#     Col. 8: html2.
#     Col. 9: startValue.
#     Col. 10: endValue.
#     Col. 11: value.
# Line 2:
#     Col. 1: Time results were received.
#     Col. 2: MD5 hash of participant's IP address.
#     Col. 3: Controller name.
#     Col. 4: Item number.
#     Col. 5: Element number.
#     Col. 6: Type.
#     Col. 7: Group.
#     Col. 8: html.
#     Col. 9: startValue.
#     Col. 10: endValue.
#     Col. 11: value.
#     Col. 12: _REACTION_TIME_.
1565027763,c6b25bf9d57ab54aed7678352cc06dcd,MultiSlider,28,0,EveryNot.All.AllBias,7,<b>How many</b> of the infants have been changed,0.00,100.00,78.50
1565027763,c6b25bf9d57ab54aed7678352cc06dcd,MultiSlider,28,0,EveryNot.All.AllBias,7,<b>Have all</b> of the infants been changed?,0.00,100.00,87.83,23382.00
# Columns below this comment are as follows:
# 1. Time results were received.
# 2. MD5 hash of participant's IP address.
# 3. Controller name.
# 4. Item number.
# 5. Element number.
# 6. Type.
# 7. Group.
# 8. Sentence (or sentence MD5).
1565027763,c6b25bf9d57ab54aed7678352cc06dcd,MultiSlider,33,0,EveryNot.Some.HowManyBias,9,The teacher has just finished correcting exams. The dean wants an update because the amount of federal funds the school receives depends on the number of students who passed.
1565027763,c6b25bf9d57ab54aed7678352cc06dcd,MultiSlider,33,0,EveryNot.Some.HowManyBias,9,How relevant are the following questions for the story?
# The lines below this comment are in groups of 2.
# The formats of the lines in each of these groups are as follows:
#
# Line 1:
#     Col. 1: Time results were received.
#     Col. 2: MD5 hash of participant's IP address.
#     Col. 3: Controller name.
#     Col. 4: Item number.
#     Col. 5: Element number.
#     Col. 6: Type.
#     Col. 7: Group.
#     Col. 8: html1.
#     Col. 9: startValue.
#     Col. 10: endValue.
#     Col. 11: value.
# Line 2:
#     Col. 1: Time results were received.
#     Col. 2: MD5 hash of participant's IP address.
#     Col. 3: Controller name.
#     Col. 4: Item number.
#     Col. 5: Element number.
#     Col. 6: Type.
#     Col. 7: Group.
#     Col. 8: html2.
#     Col. 9: startValue.
#     Col. 10: endValue.
#     Col. 11: value.
1565027763,c6b25bf9d57ab54aed7678352cc06dcd,MultiSlider,33,0,EveryNot.Some.HowManyBias,9,<b>How many</b> of the students passed the exam?,0.00,100.00,93.50
1565027763,c6b25bf9d57ab54aed7678352cc06dcd,MultiSlider,33,0,EveryNot.Some.HowManyBias,9,<b>Did all</b> of the students pass the exam?,0.00,100.00,32.83
# The lines below this comment are in groups of 2.
# The formats of the lines in each of these groups are as follows:
#
# Line 1:
#     Col. 1: Time results were received.
#     Col. 2: MD5 hash of participant's IP address.
#     Col. 3: Controller name.
#     Col. 4: Item number.
#     Col. 5: Element number.
#     Col. 6: Type.
#     Col. 7: Group.
#     Col. 8: html2.
#     Col. 9: startValue.
#     Col. 10: endValue.
#     Col. 11: value.
# Line 2:
#     Col. 1: Time results were received.
#     Col. 2: MD5 hash of participant's IP address.
#     Col. 3: Controller name.
#     Col. 4: Item number.
#     Col. 5: Element number.
#     Col. 6: Type.
#     Col. 7: Group.
#     Col. 8: html.
#     Col. 9: startValue.
#     Col. 10: endValue.
#     Col. 11: value.
#     Col. 12: _REACTION_TIME_.
1565027763,c6b25bf9d57ab54aed7678352cc06dcd,MultiSlider,33,0,EveryNot.Some.HowManyBias,9,<b>Did all</b> of the students pass the exam?,0.00,100.00,20.83
1565027763,c6b25bf9d57ab54aed7678352cc06dcd,MultiSlider,33,0,EveryNot.Some.HowManyBias,9,<b>Did any</b> of the students pass the exam?,0.00,100.00,14.17,28808.00
# Columns below this comment are as follows:
# 1. Time results were received.
# 2. MD5 hash of participant's IP address.
# 3. Controller name.
# 4. Item number.
# 5. Element number.
# 6. Type.
# 7. Group.
# 8. Sentence (or sentence MD5).
1565027763,c6b25bf9d57ab54aed7678352cc06dcd,MultiSlider,64,0,EveryNot.None.AllBias,19,Bill is an average runner who tried to break five Guinness records of running. At the day of the challenge%2C he swore that he was going to get all the records under his belt.
1565027763,c6b25bf9d57ab54aed7678352cc06dcd,MultiSlider,64,0,EveryNot.None.AllBias,19,How relevant are the following questions for the story?
# The lines below this comment are in groups of 2.
# The formats of the lines in each of these groups are as follows:
#
# Line 1:
#     Col. 1: Time results were received.
#     Col. 2: MD5 hash of participant's IP address.
#     Col. 3: Controller name.
#     Col. 4: Item number.
#     Col. 5: Element number.
#     Col. 6: Type.
#     Col. 7: Group.
#     Col. 8: html1.
#     Col. 9: startValue.
#     Col. 10: endValue.
#     Col. 11: value.
# Line 2:
#     Col. 1: Time results were received.
#     Col. 2: MD5 hash of participant's IP address.
#     Col. 3: Controller name.
#     Col. 4: Item number.
#     Col. 5: Element number.
#     Col. 6: Type.
#     Col. 7: Group.
#     Col. 8: html2.
#     Col. 9: startValue.
#     Col. 10: endValue.
#     Col. 11: value.
1565027763,c6b25bf9d57ab54aed7678352cc06dcd,MultiSlider,64,0,EveryNot.None.AllBias,19,<b>Were any</b> of the records broken in the end?,0.00,100.00,98.83
1565027763,c6b25bf9d57ab54aed7678352cc06dcd,MultiSlider,64,0,EveryNot.None.AllBias,19,<b>How many</b> of the records were broken in the end?,0.00,100.00,88.83
# The lines below this comment are in groups of 2.
# The formats of the lines in each of these groups are as follows:
#
# Line 1:
#     Col. 1: Time results were received.
#     Col. 2: MD5 hash of participant's IP address.
#     Col. 3: Controller name.
#     Col. 4: Item number.
#     Col. 5: Element number.
#     Col. 6: Type.
#     Col. 7: Group.
#     Col. 8: html.
#     Col. 9: startValue.
#     Col. 10: endValue.
#     Col. 11: value.
#     Col. 12: _REACTION_TIME_.
# Line 2:
#     Col. 1: Time results were received.
#     Col. 2: MD5 hash of participant's IP address.
#     Col. 3: Controller name.
#     Col. 4: Item number.
#     Col. 5: Element number.
#     Col. 6: Type.
#     Col. 7: Group.
#     Col. 8: Sentence (or sentence MD5).
1565027763,c6b25bf9d57ab54aed7678352cc06dcd,MultiSlider,64,0,EveryNot.None.AllBias,19,<b>Were all</b> of the records broken in the end?,0.00,100.00,30.83,19123.00
1565027763,c6b25bf9d57ab54aed7678352cc06dcd,MultiSlider,10,0,EveryNot.All.AllBias,1,The whole kindergarten was going on a field trip. The teacher jumped on the bus to see if all the children had been seated.
# The lines below this comment are in groups of 2.
# The formats of the lines in each of these groups are as follows:
#
# Line 1:
#     Col. 1: Time results were received.
#     Col. 2: MD5 hash of participant's IP address.
#     Col. 3: Controller name.
#     Col. 4: Item number.
#     Col. 5: Element number.
#     Col. 6: Type.
#     Col. 7: Group.
#     Col. 8: Sentence (or sentence MD5).
# Line 2:
#     Col. 1: Time results were received.
#     Col. 2: MD5 hash of participant's IP address.
#     Col. 3: Controller name.
#     Col. 4: Item number.
#     Col. 5: Element number.
#     Col. 6: Type.
#     Col. 7: Group.
#     Col. 8: html1.
#     Col. 9: startValue.
#     Col. 10: endValue.
#     Col. 11: value.
1565027763,c6b25bf9d57ab54aed7678352cc06dcd,MultiSlider,10,0,EveryNot.All.AllBias,1,How relevant are the following questions for the story?
1565027763,c6b25bf9d57ab54aed7678352cc06dcd,MultiSlider,10,0,EveryNot.All.AllBias,1,<b>Did any</b> of the kindergartners get on the bus?,0.00,100.00,23.50
# The lines below this comment are in groups of 2.
# The formats of the lines in each of these groups are as follows:
#
# Line 1:
#     Col. 1: Time results were received.
#     Col. 2: MD5 hash of participant's IP address.
#     Col. 3: Controller name.
#     Col. 4: Item number.
#     Col. 5: Element number.
#     Col. 6: Type.
#     Col. 7: Group.
#     Col. 8: html2.
#     Col. 9: startValue.
#     Col. 10: endValue.
#     Col. 11: value.
# Line 2:
#     Col. 1: Time results were received.
#     Col. 2: MD5 hash of participant's IP address.
#     Col. 3: Controller name.
#     Col. 4: Item number.
#     Col. 5: Element number.
#     Col. 6: Type.
#     Col. 7: Group.
#     Col. 8: html.
#     Col. 9: startValue.
#     Col. 10: endValue.
#     Col. 11: value.
#     Col. 12: _REACTION_TIME_.
1565027763,c6b25bf9d57ab54aed7678352cc06dcd,MultiSlider,10,0,EveryNot.All.AllBias,1,<b>How many</b> of the kindergartners got on the bus?,0.00,100.00,97.50
1565027763,c6b25bf9d57ab54aed7678352cc06dcd,MultiSlider,10,0,EveryNot.All.AllBias,1,<b>Did all</b> of the kindergartners get on the bus?,0.00,100.00,82.17,13931.00
# Columns below this comment are as follows:
# 1. Time results were received.
# 2. MD5 hash of participant's IP address.
# 3. Controller name.
# 4. Item number.
# 5. Element number.
# 6. Type.
# 7. Group.
# 8. Sentence (or sentence MD5).
1565027763,c6b25bf9d57ab54aed7678352cc06dcd,MultiSlider,55,0,EveryNot.Some.AllBias,16,A tech start-up is facing some financial issues. During an HR meeting%2C the board debated whether they had to lay off all of their employees.
1565027763,c6b25bf9d57ab54aed7678352cc06dcd,MultiSlider,55,0,EveryNot.Some.AllBias,16,How relevant are the following questions for the story?
# The lines below this comment are in groups of 2.
# The formats of the lines in each of these groups are as follows:
#
# Line 1:
#     Col. 1: Time results were received.
#     Col. 2: MD5 hash of participant's IP address.
#     Col. 3: Controller name.
#     Col. 4: Item number.
#     Col. 5: Element number.
#     Col. 6: Type.
#     Col. 7: Group.
#     Col. 8: html1.
#     Col. 9: startValue.
#     Col. 10: endValue.
#     Col. 11: value.
# Line 2:
#     Col. 1: Time results were received.
#     Col. 2: MD5 hash of participant's IP address.
#     Col. 3: Controller name.
#     Col. 4: Item number.
#     Col. 5: Element number.
#     Col. 6: Type.
#     Col. 7: Group.
#     Col. 8: html2.
#     Col. 9: startValue.
#     Col. 10: endValue.
#     Col. 11: value.
1565027763,c6b25bf9d57ab54aed7678352cc06dcd,MultiSlider,55,0,EveryNot.Some.AllBias,16,Will<b> any of </b>of the employees be fired?,0.00,100.00,99.17
1565027763,c6b25bf9d57ab54aed7678352cc06dcd,MultiSlider,55,0,EveryNot.Some.AllBias,16,<b>How many</b> of the employees will be fired?,0.00,100.00,97.83
# The lines below this comment are in groups of 2.
# The formats of the lines in each of these groups are as follows:
#
# Line 1:
#     Col. 1: Time results were received.
#     Col. 2: MD5 hash of participant's IP address.
#     Col. 3: Controller name.
#     Col. 4: Item number.
#     Col. 5: Element number.
#     Col. 6: Type.
#     Col. 7: Group.
#     Col. 8: html.
#     Col. 9: startValue.
#     Col. 10: endValue.
#     Col. 11: value.
#     Col. 12: _REACTION_TIME_.
# Line 2:
#     Col. 1: Time results were received.
#     Col. 2: MD5 hash of participant's IP address.
#     Col. 3: Controller name.
#     Col. 4: Item number.
#     Col. 5: Element number.
#     Col. 6: Type.
#     Col. 7: Group.
#     Col. 8: Sentence (or sentence MD5).
1565027763,c6b25bf9d57ab54aed7678352cc06dcd,MultiSlider,55,0,EveryNot.Some.AllBias,16,Will<b> all of </b>of the employees be fired?,0.00,100.00,26.83,20998.00
1565027763,c6b25bf9d57ab54aed7678352cc06dcd,MultiSlider,59,0,EveryNot.None.NoneBias,17,Jack is an incompetent homicide detective trying to solve three recent murders. His boss tells him that the newspapers will be all over him if he fails to solve any of these murders.
# The lines below this comment are in groups of 2.
# The formats of the lines in each of these groups are as follows:
#
# Line 1:
#     Col. 1: Time results were received.
#     Col. 2: MD5 hash of participant's IP address.
#     Col. 3: Controller name.
#     Col. 4: Item number.
#     Col. 5: Element number.
#     Col. 6: Type.
#     Col. 7: Group.
#     Col. 8: Sentence (or sentence MD5).
# Line 2:
#     Col. 1: Time results were received.
#     Col. 2: MD5 hash of participant's IP address.
#     Col. 3: Controller name.
#     Col. 4: Item number.
#     Col. 5: Element number.
#     Col. 6: Type.
#     Col. 7: Group.
#     Col. 8: html1.
#     Col. 9: startValue.
#     Col. 10: endValue.
#     Col. 11: value.
1565027763,c6b25bf9d57ab54aed7678352cc06dcd,MultiSlider,59,0,EveryNot.None.NoneBias,17,How relevant are the following questions for the story?
1565027763,c6b25bf9d57ab54aed7678352cc06dcd,MultiSlider,59,0,EveryNot.None.NoneBias,17,<b>Have all</b> of the cases been solved?,0.00,100.00,78.50
# The lines below this comment are in groups of 2.
# The formats of the lines in each of these groups are as follows:
#
# Line 1:
#     Col. 1: Time results were received.
#     Col. 2: MD5 hash of participant's IP address.
#     Col. 3: Controller name.
#     Col. 4: Item number.
#     Col. 5: Element number.
#     Col. 6: Type.
#     Col. 7: Group.
#     Col. 8: html2.
#     Col. 9: startValue.
#     Col. 10: endValue.
#     Col. 11: value.
# Line 2:
#     Col. 1: Time results were received.
#     Col. 2: MD5 hash of participant's IP address.
#     Col. 3: Controller name.
#     Col. 4: Item number.
#     Col. 5: Element number.
#     Col. 6: Type.
#     Col. 7: Group.
#     Col. 8: html.
#     Col. 9: startValue.
#     Col. 10: endValue.
#     Col. 11: value.
#     Col. 12: _REACTION_TIME_.
1565027763,c6b25bf9d57ab54aed7678352cc06dcd,MultiSlider,59,0,EveryNot.None.NoneBias,17,<b>Have any</b> of the cases been solved?,0.00,100.00,97.83
1565027763,c6b25bf9d57ab54aed7678352cc06dcd,MultiSlider,59,0,EveryNot.None.NoneBias,17,<b>How many</b> of the cases have been solved?,0.00,100.00,98.83,18426.00
# Columns below this comment are as follows:
# 1. Time results were received.
# 2. MD5 hash of participant's IP address.
# 3. Controller name.
# 4. Item number.
# 5. Element number.
# 6. Type.
# 7. Group.
# 8. Sentence (or sentence MD5).
1565027763,c6b25bf9d57ab54aed7678352cc06dcd,MultiSlider,32,0,EveryNot.All.NoneBias,8,A glamorous cocktail event was being held in the Hilton hotel. When guests arrived%2C the receptionist wanted to see if anyone observed the dress code in the invitation.
1565027763,c6b25bf9d57ab54aed7678352cc06dcd,MultiSlider,32,0,EveryNot.All.NoneBias,8,How relevant are the following questions for the story?
# The lines below this comment are in groups of 2.
# The formats of the lines in each of these groups are as follows:
#
# Line 1:
#     Col. 1: Time results were received.
#     Col. 2: MD5 hash of participant's IP address.
#     Col. 3: Controller name.
#     Col. 4: Item number.
#     Col. 5: Element number.
#     Col. 6: Type.
#     Col. 7: Group.
#     Col. 8: html1.
#     Col. 9: startValue.
#     Col. 10: endValue.
#     Col. 11: value.
# Line 2:
#     Col. 1: Time results were received.
#     Col. 2: MD5 hash of participant's IP address.
#     Col. 3: Controller name.
#     Col. 4: Item number.
#     Col. 5: Element number.
#     Col. 6: Type.
#     Col. 7: Group.
#     Col. 8: html2.
#     Col. 9: startValue.
#     Col. 10: endValue.
#     Col. 11: value.
1565027763,c6b25bf9d57ab54aed7678352cc06dcd,MultiSlider,32,0,EveryNot.All.NoneBias,8,<b>Were all</b> of the guests dressed properly?,0.00,100.00,79.17
1565027763,c6b25bf9d57ab54aed7678352cc06dcd,MultiSlider,32,0,EveryNot.All.NoneBias,8,<b>Were any</b> of the guests dressed properly?,0.00,100.00,36.17
# The lines below this comment are in groups of 2.
# The formats of the lines in each of these groups are as follows:
#
# Line 1:
#     Col. 1: Time results were received.
#     Col. 2: MD5 hash of participant's IP address.
