#
# Results on Monday August 05 2019 19:50:50 UTC.
# USER AGENT: Mozilla/5.0 (Windows NT 10.0; Win64; x64) AppleWebKit/537.36 (KHTML, like Gecko) Chrome/75.0.3770.100 Safari/537.36
# Design number was non-random = 0
#
# Columns below this comment are as follows:
# 1. Time results were received.
# 2. MD5 hash of participant's IP address.
# 3. Controller name.
# 4. Item number.
# 5. Element number.
# 6. Type.
# 7. Group.
# 8. Field name.
# 9. Field value.
1565034651,8e54ff731298b7074d720df618cd1e14,Form,6,0,consent,NULL,consent,yes
1565034651,8e54ff731298b7074d720df618cd1e14,Form,6,0,consent,NULL,_REACTION_TIME_,6452
1565034651,8e54ff731298b7074d720df618cd1e14,Form,1,0,intro,NULL,age,25
1565034651,8e54ff731298b7074d720df618cd1e14,Form,1,0,intro,NULL,natlang,English
1565034651,8e54ff731298b7074d720df618cd1e14,Form,1,0,intro,NULL,otherlang,No
1565034651,8e54ff731298b7074d720df618cd1e14,Form,1,0,intro,NULL,Prolific,5d484809afde7d0001532e28
1565034651,8e54ff731298b7074d720df618cd1e14,Form,1,0,intro,NULL,gender,female
1565034651,8e54ff731298b7074d720df618cd1e14,Form,1,0,intro,NULL,_REACTION_TIME_,14536
1565034651,8e54ff731298b7074d720df618cd1e14,Form,2,0,intro1,NULL,_REACTION_TIME_,1819
1565034651,8e54ff731298b7074d720df618cd1e14,Form,3,0,intro2,NULL,_REACTION_TIME_,29529
1565034651,8e54ff731298b7074d720df618cd1e14,Form,4,0,intro3,NULL,_REACTION_TIME_,8636
# Columns below this comment are as follows:
# 1. Time results were received.
# 2. MD5 hash of participant's IP address.
# 3. Controller name.
# 4. Item number.
# 5. Element number.
# 6. Type.
# 7. Group.
# 8. Sentence (or sentence MD5).
1565034651,8e54ff731298b7074d720df618cd1e14,MultiSlider,18,0,EveryNot.All.HowManyBias,4,The couple has been planning their wedding for next month. The bride wants to know if they are behind schedule to finish writing the invitations.
1565034651,8e54ff731298b7074d720df618cd1e14,MultiSlider,18,0,EveryNot.All.HowManyBias,4,How relevant are the following questions for the story?
# Columns below this comment are as follows:
# 1. Time results were received.
# 2. MD5 hash of participant's IP address.
# 3. Controller name.
# 4. Item number.
# 5. Element number.
# 6. Type.
# 7. Group.
# 8. html1.
# 9. startValue.
# 10. endValue.
# 11. value.
1565034651,8e54ff731298b7074d720df618cd1e14,MultiSlider,18,0,EveryNot.All.HowManyBias,4,<b>Have all</b> of the wedding invitations been written?,0.00,100.00,96.50
1565034651,8e54ff731298b7074d720df618cd1e14,MultiSlider,18,0,EveryNot.All.HowManyBias,4,<b>Have all</b> of the wedding invitations been written?,0.00,100.00,50.17
# The lines below this comment are in groups of 2.
# The formats of the lines in each of these groups are as follows:
#
# Line 1:
#     Col. 1: Time results were received.
#     Col. 2: MD5 hash of participant's IP address.
#     Col. 3: Controller name.
#     Col. 4: Item number.
#     Col. 5: Element number.
#     Col. 6: Type.
#     Col. 7: Group.
#     Col. 8: html.
#     Col. 9: startValue.
#     Col. 10: endValue.
#     Col. 11: value.
#     Col. 12: _REACTION_TIME_.
# Line 2:
#     Col. 1: Time results were received.
#     Col. 2: MD5 hash of participant's IP address.
#     Col. 3: Controller name.
#     Col. 4: Item number.
#     Col. 5: Element number.
#     Col. 6: Type.
#     Col. 7: Group.
#     Col. 8: Sentence (or sentence MD5).
1565034651,8e54ff731298b7074d720df618cd1e14,MultiSlider,18,0,EveryNot.All.HowManyBias,4,<b>How many</b> of the wedding invitations have been written?,0.00,100.00,96.83,36385.00
1565034651,8e54ff731298b7074d720df618cd1e14,MultiSlider,72,0,EveryNot.None.HowManyBias,22,The unsuccessful broker has made some risky investments in the stock market. He nervously stared at the monitor%2C because whether he can pay for the mortgage depends on the number of the investments that work out.
# The lines below this comment are in groups of 2.
# The formats of the lines in each of these groups are as follows:
#
# Line 1:
#     Col. 1: Time results were received.
#     Col. 2: MD5 hash of participant's IP address.
#     Col. 3: Controller name.
#     Col. 4: Item number.
#     Col. 5: Element number.
#     Col. 6: Type.
#     Col. 7: Group.
#     Col. 8: Sentence (or sentence MD5).
# Line 2:
#     Col. 1: Time results were received.
#     Col. 2: MD5 hash of participant's IP address.
#     Col. 3: Controller name.
#     Col. 4: Item number.
#     Col. 5: Element number.
#     Col. 6: Type.
#     Col. 7: Group.
#     Col. 8: html1.
#     Col. 9: startValue.
#     Col. 10: endValue.
#     Col. 11: value.
1565034651,8e54ff731298b7074d720df618cd1e14,MultiSlider,72,0,EveryNot.None.HowManyBias,22,How relevant are the following questions for the story?
1565034651,8e54ff731298b7074d720df618cd1e14,MultiSlider,72,0,EveryNot.None.HowManyBias,22,<b>Did all</b> of the investment pay off?,0.00,100.00,10.17
# The lines below this comment are in groups of 2.
# The formats of the lines in each of these groups are as follows:
#
# Line 1:
#     Col. 1: Time results were received.
#     Col. 2: MD5 hash of participant's IP address.
#     Col. 3: Controller name.
#     Col. 4: Item number.
#     Col. 5: Element number.
#     Col. 6: Type.
#     Col. 7: Group.
#     Col. 8: html1.
#     Col. 9: startValue.
#     Col. 10: endValue.
#     Col. 11: value.
# Line 2:
#     Col. 1: Time results were received.
#     Col. 2: MD5 hash of participant's IP address.
#     Col. 3: Controller name.
#     Col. 4: Item number.
#     Col. 5: Element number.
#     Col. 6: Type.
#     Col. 7: Group.
#     Col. 8: html2.
#     Col. 9: startValue.
#     Col. 10: endValue.
#     Col. 11: value.
1565034651,8e54ff731298b7074d720df618cd1e14,MultiSlider,72,0,EveryNot.None.HowManyBias,22,<b>Did all</b> of the investment pay off?,0.00,100.00,3.50
1565034651,8e54ff731298b7074d720df618cd1e14,MultiSlider,72,0,EveryNot.None.HowManyBias,22,<b>Did any</b> of the investment pay off?,0.00,100.00,74.50
# The lines below this comment are in groups of 2.
# The formats of the lines in each of these groups are as follows:
#
# Line 1:
#     Col. 1: Time results were received.
#     Col. 2: MD5 hash of participant's IP address.
#     Col. 3: Controller name.
#     Col. 4: Item number.
#     Col. 5: Element number.
#     Col. 6: Type.
#     Col. 7: Group.
#     Col. 8: html2.
#     Col. 9: startValue.
#     Col. 10: endValue.
#     Col. 11: value.
# Line 2:
#     Col. 1: Time results were received.
#     Col. 2: MD5 hash of participant's IP address.
#     Col. 3: Controller name.
#     Col. 4: Item number.
#     Col. 5: Element number.
#     Col. 6: Type.
#     Col. 7: Group.
#     Col. 8: html.
#     Col. 9: startValue.
#     Col. 10: endValue.
#     Col. 11: value.
#     Col. 12: _REACTION_TIME_.
1565034651,8e54ff731298b7074d720df618cd1e14,MultiSlider,72,0,EveryNot.None.HowManyBias,22,<b>Did any</b> of the investment pay off?,0.00,100.00,93.83
1565034651,8e54ff731298b7074d720df618cd1e14,MultiSlider,72,0,EveryNot.None.HowManyBias,22,<b>How many</b> of the investment paid off?,0.00,100.00,50.00,50164.00
# Columns below this comment are as follows:
# 1. Time results were received.
# 2. MD5 hash of participant's IP address.
# 3. Controller name.
# 4. Item number.
# 5. Element number.
# 6. Type.
# 7. Group.
# 8. Sentence (or sentence MD5).
1565034651,8e54ff731298b7074d720df618cd1e14,MultiSlider,36,0,EveryNot.Some.HowManyBias,10,The city council organized a spelling bee competition. As the competition began%2C the parents hoped that their kids could get as many answers correct as possible.
1565034651,8e54ff731298b7074d720df618cd1e14,MultiSlider,36,0,EveryNot.Some.HowManyBias,10,How relevant are the following questions for the story?
# The lines below this comment are in groups of 2.
# The formats of the lines in each of these groups are as follows:
#
# Line 1:
#     Col. 1: Time results were received.
#     Col. 2: MD5 hash of participant's IP address.
#     Col. 3: Controller name.
#     Col. 4: Item number.
#     Col. 5: Element number.
#     Col. 6: Type.
#     Col. 7: Group.
#     Col. 8: html1.
#     Col. 9: startValue.
#     Col. 10: endValue.
#     Col. 11: value.
# Line 2:
#     Col. 1: Time results were received.
#     Col. 2: MD5 hash of participant's IP address.
#     Col. 3: Controller name.
#     Col. 4: Item number.
#     Col. 5: Element number.
#     Col. 6: Type.
#     Col. 7: Group.
#     Col. 8: html2.
#     Col. 9: startValue.
#     Col. 10: endValue.
#     Col. 11: value.
1565034651,8e54ff731298b7074d720df618cd1e14,MultiSlider,36,0,EveryNot.Some.HowManyBias,10,Did the kids answer <b> all of </b>the questions correctly?,0.00,100.00,18.83
1565034651,8e54ff731298b7074d720df618cd1e14,MultiSlider,36,0,EveryNot.Some.HowManyBias,10,Did the kids answer <b> any of </b>the questions correctly?,0.00,100.00,30.83
# The lines below this comment are in groups of 2.
# The formats of the lines in each of these groups are as follows:
#
# Line 1:
#     Col. 1: Time results were received.
#     Col. 2: MD5 hash of participant's IP address.
#     Col. 3: Controller name.
#     Col. 4: Item number.
#     Col. 5: Element number.
#     Col. 6: Type.
#     Col. 7: Group.
#     Col. 8: html.
#     Col. 9: startValue.
#     Col. 10: endValue.
#     Col. 11: value.
#     Col. 12: _REACTION_TIME_.
# Line 2:
#     Col. 1: Time results were received.
#     Col. 2: MD5 hash of participant's IP address.
#     Col. 3: Controller name.
#     Col. 4: Item number.
#     Col. 5: Element number.
#     Col. 6: Type.
#     Col. 7: Group.
#     Col. 8: Sentence (or sentence MD5).
1565034651,8e54ff731298b7074d720df618cd1e14,MultiSlider,36,0,EveryNot.Some.HowManyBias,10,<b>How many</b> of the questions did the kids answer correctly?,0.00,100.00,97.50,24101.00
1565034651,8e54ff731298b7074d720df618cd1e14,MultiSlider,17,0,EveryNot.All.NoneBias,3,Rachel is an industrious teaching assistant who has to grade student essays. After a week%2C her boss asks if she has already started grading the essays.
# The lines below this comment are in groups of 2.
# The formats of the lines in each of these groups are as follows:
#
# Line 1:
#     Col. 1: Time results were received.
#     Col. 2: MD5 hash of participant's IP address.
#     Col. 3: Controller name.
#     Col. 4: Item number.
#     Col. 5: Element number.
#     Col. 6: Type.
#     Col. 7: Group.
#     Col. 8: Sentence (or sentence MD5).
# Line 2:
#     Col. 1: Time results were received.
#     Col. 2: MD5 hash of participant's IP address.
#     Col. 3: Controller name.
#     Col. 4: Item number.
#     Col. 5: Element number.
#     Col. 6: Type.
#     Col. 7: Group.
#     Col. 8: html1.
#     Col. 9: startValue.
#     Col. 10: endValue.
#     Col. 11: value.
1565034651,8e54ff731298b7074d720df618cd1e14,MultiSlider,17,0,EveryNot.All.NoneBias,3,How relevant are the following questions for the story?
1565034651,8e54ff731298b7074d720df618cd1e14,MultiSlider,17,0,EveryNot.All.NoneBias,3,<b>Were any</b> of the student essays graded?,0.00,100.00,97.17
# The lines below this comment are in groups of 2.
# The formats of the lines in each of these groups are as follows:
#
# Line 1:
#     Col. 1: Time results were received.
#     Col. 2: MD5 hash of participant's IP address.
#     Col. 3: Controller name.
#     Col. 4: Item number.
#     Col. 5: Element number.
#     Col. 6: Type.
#     Col. 7: Group.
#     Col. 8: html.
#     Col. 9: startValue.
#     Col. 10: endValue.
#     Col. 11: value.
#     Col. 12: _REACTION_TIME_.
# Line 2:
#     Col. 1: Time results were received.
#     Col. 2: MD5 hash of participant's IP address.
#     Col. 3: Controller name.
#     Col. 4: Item number.
#     Col. 5: Element number.
#     Col. 6: Type.
#     Col. 7: Group.
#     Col. 8: Sentence (or sentence MD5).
1565034651,8e54ff731298b7074d720df618cd1e14,MultiSlider,17,0,EveryNot.All.NoneBias,3,<b>Were all</b> of the student essays graded?,0.00,100.00,1.50,18114.00
1565034651,8e54ff731298b7074d720df618cd1e14,MultiSlider,35,0,EveryNot.Some.NoneBias,9,The teacher has just finished correcting exams. The dean wants an update because the school will be closed if all of the students failed.
# The lines below this comment are in groups of 2.
# The formats of the lines in each of these groups are as follows:
#
# Line 1:
#     Col. 1: Time results were received.
#     Col. 2: MD5 hash of participant's IP address.
#     Col. 3: Controller name.
#     Col. 4: Item number.
#     Col. 5: Element number.
#     Col. 6: Type.
#     Col. 7: Group.
#     Col. 8: Sentence (or sentence MD5).
# Line 2:
#     Col. 1: Time results were received.
#     Col. 2: MD5 hash of participant's IP address.
#     Col. 3: Controller name.
#     Col. 4: Item number.
#     Col. 5: Element number.
#     Col. 6: Type.
#     Col. 7: Group.
#     Col. 8: html1.
#     Col. 9: startValue.
#     Col. 10: endValue.
#     Col. 11: value.
1565034651,8e54ff731298b7074d720df618cd1e14,MultiSlider,35,0,EveryNot.Some.NoneBias,9,How relevant are the following questions for the story?
1565034651,8e54ff731298b7074d720df618cd1e14,MultiSlider,35,0,EveryNot.Some.NoneBias,9,<b>Did any</b> of the students pass the exam?,0.00,100.00,99.17
# The lines below this comment are in groups of 2.
# The formats of the lines in each of these groups are as follows:
#
# Line 1:
#     Col. 1: Time results were received.
#     Col. 2: MD5 hash of participant's IP address.
#     Col. 3: Controller name.
#     Col. 4: Item number.
#     Col. 5: Element number.
#     Col. 6: Type.
#     Col. 7: Group.
#     Col. 8: html.
#     Col. 9: startValue.
#     Col. 10: endValue.
#     Col. 11: value.
#     Col. 12: _REACTION_TIME_.
# Line 2:
#     Col. 1: Time results were received.
#     Col. 2: MD5 hash of participant's IP address.
#     Col. 3: Controller name.
#     Col. 4: Item number.
#     Col. 5: Element number.
#     Col. 6: Type.
#     Col. 7: Group.
#     Col. 8: Sentence (or sentence MD5).
1565034651,8e54ff731298b7074d720df618cd1e14,MultiSlider,35,0,EveryNot.Some.NoneBias,9,<b>Did all</b> of the students pass the exam?,0.00,100.00,24.50,37018.00
1565034651,8e54ff731298b7074d720df618cd1e14,MultiSlider,53,0,EveryNot.Some.NoneBias,15,Barney has been submitting recipes to a famous cooking website for some time now. His partner asked whether any of his submissions had even been posted on the website.
# The lines below this comment are in groups of 2.
# The formats of the lines in each of these groups are as follows:
#
# Line 1:
#     Col. 1: Time results were received.
#     Col. 2: MD5 hash of participant's IP address.
#     Col. 3: Controller name.
#     Col. 4: Item number.
#     Col. 5: Element number.
#     Col. 6: Type.
#     Col. 7: Group.
#     Col. 8: Sentence (or sentence MD5).
# Line 2:
#     Col. 1: Time results were received.
#     Col. 2: MD5 hash of participant's IP address.
#     Col. 3: Controller name.
#     Col. 4: Item number.
#     Col. 5: Element number.
#     Col. 6: Type.
#     Col. 7: Group.
#     Col. 8: html1.
#     Col. 9: startValue.
#     Col. 10: endValue.
#     Col. 11: value.
1565034651,8e54ff731298b7074d720df618cd1e14,MultiSlider,53,0,EveryNot.Some.NoneBias,15,How relevant are the following questions for the story?
1565034651,8e54ff731298b7074d720df618cd1e14,MultiSlider,53,0,EveryNot.Some.NoneBias,15,<b>Have any</b> of Barney's submissions been published?,0.00,100.00,98.83
# The lines below this comment are in groups of 2.
# The formats of the lines in each of these groups are as follows:
#
# Line 1:
#     Col. 1: Time results were received.
#     Col. 2: MD5 hash of participant's IP address.
#     Col. 3: Controller name.
#     Col. 4: Item number.
#     Col. 5: Element number.
#     Col. 6: Type.
#     Col. 7: Group.
#     Col. 8: html2.
#     Col. 9: startValue.
#     Col. 10: endValue.
#     Col. 11: value.
# Line 2:
#     Col. 1: Time results were received.
#     Col. 2: MD5 hash of participant's IP address.
#     Col. 3: Controller name.
#     Col. 4: Item number.
#     Col. 5: Element number.
#     Col. 6: Type.
#     Col. 7: Group.
#     Col. 8: html.
#     Col. 9: startValue.
#     Col. 10: endValue.
#     Col. 11: value.
#     Col. 12: _REACTION_TIME_.
1565034651,8e54ff731298b7074d720df618cd1e14,MultiSlider,53,0,EveryNot.Some.NoneBias,15,<b>How many</b> of Barney's submissions have been published?,0.00,100.00,2.17
1565034651,8e54ff731298b7074d720df618cd1e14,MultiSlider,53,0,EveryNot.Some.NoneBias,15,<b>Have all</b> of Barney's submissions been published?,0.00,100.00,78.50,24727.00
# Columns below this comment are as follows:
# 1. Time results were received.
# 2. MD5 hash of participant's IP address.
# 3. Controller name.
# 4. Item number.
# 5. Element number.
# 6. Type.
# 7. Group.
# 8. Sentence (or sentence MD5).
1565034651,8e54ff731298b7074d720df618cd1e14,MultiSlider,58,0,EveryNot.None.AllBias,17,Jack is an incompetent homicide detective trying to solve three recent murders. His boss tells him that he will have to look for a new job if he doesn't solve these murders.
1565034651,8e54ff731298b7074d720df618cd1e14,MultiSlider,58,0,EveryNot.None.AllBias,17,How relevant are the following questions for the story?
# The lines below this comment are in groups of 2.
# The formats of the lines in each of these groups are as follows:
#
# Line 1:
#     Col. 1: Time results were received.
#     Col. 2: MD5 hash of participant's IP address.
#     Col. 3: Controller name.
#     Col. 4: Item number.
#     Col. 5: Element number.
#     Col. 6: Type.
#     Col. 7: Group.
#     Col. 8: html2.
#     Col. 9: startValue.
#     Col. 10: endValue.
#     Col. 11: value.
# Line 2:
#     Col. 1: Time results were received.
#     Col. 2: MD5 hash of participant's IP address.
#     Col. 3: Controller name.
#     Col. 4: Item number.
#     Col. 5: Element number.
#     Col. 6: Type.
#     Col. 7: Group.
#     Col. 8: html.
#     Col. 9: startValue.
#     Col. 10: endValue.
#     Col. 11: value.
#     Col. 12: _REACTION_TIME_.
1565034651,8e54ff731298b7074d720df618cd1e14,MultiSlider,58,0,EveryNot.None.AllBias,17,<b>Have all</b> of the cases been solved?,0.00,100.00,1.50
1565034651,8e54ff731298b7074d720df618cd1e14,MultiSlider,58,0,EveryNot.None.AllBias,17,<b>Have any</b> of the cases been solved?,0.00,100.00,99.17,28464.00
# Columns below this comment are as follows:
# 1. Time results were received.
# 2. MD5 hash of participant's IP address.
# 3. Controller name.
# 4. Item number.
# 5. Element number.
# 6. Type.
# 7. Group.
# 8. Sentence (or sentence MD5).
1565034651,8e54ff731298b7074d720df618cd1e14,MultiSlider,44,0,EveryNot.Some.NoneBias,12,Sue and Marc went to a two-day science exhibition. On the first day%2C the organizers approached them and asked if they had already been to any of the booths.
1565034651,8e54ff731298b7074d720df618cd1e14,MultiSlider,44,0,EveryNot.Some.NoneBias,12,How relevant are the following questions for the story?
# The lines below this comment are in groups of 2.
# The formats of the lines in each of these groups are as follows:
#
# Line 1:
#     Col. 1: Time results were received.
#     Col. 2: MD5 hash of participant's IP address.
#     Col. 3: Controller name.
#     Col. 4: Item number.
#     Col. 5: Element number.
#     Col. 6: Type.
#     Col. 7: Group.
#     Col. 8: html1.
#     Col. 9: startValue.
#     Col. 10: endValue.
#     Col. 11: value.
# Line 2:
#     Col. 1: Time results were received.
#     Col. 2: MD5 hash of participant's IP address.
#     Col. 3: Controller name.
#     Col. 4: Item number.
#     Col. 5: Element number.
#     Col. 6: Type.
#     Col. 7: Group.
#     Col. 8: html2.
#     Col. 9: startValue.
#     Col. 10: endValue.
#     Col. 11: value.
1565034651,8e54ff731298b7074d720df618cd1e14,MultiSlider,44,0,EveryNot.Some.NoneBias,12,Have Sue and Marc visited<b> any of </b>the booths so far?,0.00,100.00,97.17
1565034651,8e54ff731298b7074d720df618cd1e14,MultiSlider,44,0,EveryNot.Some.NoneBias,12,<b>How many</b> of the booths have Sue and Marc visited so far?,0.00,100.00,27.17
# The lines below this comment are in groups of 2.
# The formats of the lines in each of these groups are as follows:
#
# Line 1:
#     Col. 1: Time results were received.
#     Col. 2: MD5 hash of participant's IP address.
#     Col. 3: Controller name.
#     Col. 4: Item number.
#     Col. 5: Element number.
#     Col. 6: Type.
#     Col. 7: Group.
#     Col. 8: html.
#     Col. 9: startValue.
#     Col. 10: endValue.
#     Col. 11: value.
#     Col. 12: _REACTION_TIME_.
# Line 2:
#     Col. 1: Time results were received.
#     Col. 2: MD5 hash of participant's IP address.
#     Col. 3: Controller name.
#     Col. 4: Item number.
#     Col. 5: Element number.
#     Col. 6: Type.
#     Col. 7: Group.
#     Col. 8: Sentence (or sentence MD5).
1565034651,8e54ff731298b7074d720df618cd1e14,MultiSlider,44,0,EveryNot.Some.NoneBias,12,Have Sue and Marc visited<b> all of </b>the booths so far?,0.00,100.00,63.50,44907.00
1565034651,8e54ff731298b7074d720df618cd1e14,MultiSlider,40,0,EveryNot.Some.AllBias,11,The local community organized a flea market last weekend. The sellers  all hoped that they could close every sale they dealt with.
# The lines below this comment are in groups of 2.
# The formats of the lines in each of these groups are as follows:
#
# Line 1:
#     Col. 1: Time results were received.
#     Col. 2: MD5 hash of participant's IP address.
#     Col. 3: Controller name.
#     Col. 4: Item number.
#     Col. 5: Element number.
#     Col. 6: Type.
#     Col. 7: Group.
#     Col. 8: Sentence (or sentence MD5).
# Line 2:
#     Col. 1: Time results were received.
#     Col. 2: MD5 hash of participant's IP address.
#     Col. 3: Controller name.
#     Col. 4: Item number.
#     Col. 5: Element number.
#     Col. 6: Type.
#     Col. 7: Group.
#     Col. 8: html2.
#     Col. 9: startValue.
#     Col. 10: endValue.
#     Col. 11: value.
1565034651,8e54ff731298b7074d720df618cd1e14,MultiSlider,40,0,EveryNot.Some.AllBias,11,How relevant are the following questions for the story?
1565034651,8e54ff731298b7074d720df618cd1e14,MultiSlider,40,0,EveryNot.Some.AllBias,11,<b>Were all</b> of the sales closed in the end?,0.00,100.00,98.50
# The lines below this comment are in groups of 2.
# The formats of the lines in each of these groups are as follows:
#
# Line 1:
#     Col. 1: Time results were received.
#     Col. 2: MD5 hash of participant's IP address.
#     Col. 3: Controller name.
#     Col. 4: Item number.
#     Col. 5: Element number.
#     Col. 6: Type.
#     Col. 7: Group.
#     Col. 8: html.
#     Col. 9: startValue.
#     Col. 10: endValue.
#     Col. 11: value.
#     Col. 12: _REACTION_TIME_.
# Line 2:
#     Col. 1: Time results were received.
#     Col. 2: MD5 hash of participant's IP address.
#     Col. 3: Controller name.
#     Col. 4: Item number.
#     Col. 5: Element number.
#     Col. 6: Type.
#     Col. 7: Group.
#     Col. 8: Sentence (or sentence MD5).
1565034651,8e54ff731298b7074d720df618cd1e14,MultiSlider,40,0,EveryNot.Some.AllBias,11,<b>Were any</b> of the sales closed in the end?,0.00,100.00,0.83,37237.00
1565034651,8e54ff731298b7074d720df618cd1e14,MultiSlider,26,0,EveryNot.All.NoneBias,6,Eric is a professional producer working on a new album. One day%2C he called the composer  to suggest that they should demo the new songs if they haven't done so already.
# The lines below this comment are in groups of 2.
# The formats of the lines in each of these groups are as follows:
#
# Line 1:
#     Col. 1: Time results were received.
#     Col. 2: MD5 hash of participant's IP address.
#     Col. 3: Controller name.
#     Col. 4: Item number.
#     Col. 5: Element number.
#     Col. 6: Type.
#     Col. 7: Group.
#     Col. 8: Sentence (or sentence MD5).
# Line 2:
#     Col. 1: Time results were received.
#     Col. 2: MD5 hash of participant's IP address.
#     Col. 3: Controller name.
#     Col. 4: Item number.
#     Col. 5: Element number.
#     Col. 6: Type.
#     Col. 7: Group.
#     Col. 8: html1.
#     Col. 9: startValue.
#     Col. 10: endValue.
#     Col. 11: value.
1565034651,8e54ff731298b7074d720df618cd1e14,MultiSlider,26,0,EveryNot.All.NoneBias,6,How relevant are the following questions for the story?
1565034651,8e54ff731298b7074d720df618cd1e14,MultiSlider,26,0,EveryNot.All.NoneBias,6,<b>Have any</b> of the new songs been demoed?,0.00,100.00,98.50
# The lines below this comment are in groups of 2.
# The formats of the lines in each of these groups are as follows:
#
# Line 1:
#     Col. 1: Time results were received.
#     Col. 2: MD5 hash of participant's IP address.
#     Col. 3: Controller name.
#     Col. 4: Item number.
#     Col. 5: Element number.
#     Col. 6: Type.
#     Col. 7: Group.
#     Col. 8: html2.
#     Col. 9: startValue.
#     Col. 10: endValue.
#     Col. 11: value.
# Line 2:
#     Col. 1: Time results were received.
#     Col. 2: MD5 hash of participant's IP address.
#     Col. 3: Controller name.
#     Col. 4: Item number.
#     Col. 5: Element number.
#     Col. 6: Type.
#     Col. 7: Group.
#     Col. 8: html.
#     Col. 9: startValue.
#     Col. 10: endValue.
#     Col. 11: value.
#     Col. 12: _REACTION_TIME_.
1565034651,8e54ff731298b7074d720df618cd1e14,MultiSlider,26,0,EveryNot.All.NoneBias,6,<b>How many</b> of the new songs have been demoed?,0.00,100.00,0.50
1565034651,8e54ff731298b7074d720df618cd1e14,MultiSlider,26,0,EveryNot.All.NoneBias,6,<b>Have all</b> of the new songs been demoed?,0.00,100.00,98.50,42281.00
# Columns below this comment are as follows:
# 1. Time results were received.
# 2. MD5 hash of participant's IP address.
# 3. Controller name.
# 4. Item number.
# 5. Element number.
# 6. Type.
# 7. Group.
# 8. Sentence (or sentence MD5).
1565034651,8e54ff731298b7074d720df618cd1e14,MultiSlider,49,0,EveryNot.Some.AllBias,14,Roy recently started a career as a professional gamer. A journalist interviewed him%2C and asked if he had already been invited to all of the five Major League Gaming tournaments.
1565034651,8e54ff731298b7074d720df618cd1e14,MultiSlider,49,0,EveryNot.Some.AllBias,14,How relevant are the following questions for the story?
# The lines below this comment are in groups of 2.
# The formats of the lines in each of these groups are as follows:
#
# Line 1:
#     Col. 1: Time results were received.
#     Col. 2: MD5 hash of participant's IP address.
#     Col. 3: Controller name.
#     Col. 4: Item number.
#     Col. 5: Element number.
#     Col. 6: Type.
#     Col. 7: Group.
#     Col. 8: html2.
#     Col. 9: startValue.
#     Col. 10: endValue.
#     Col. 11: value.
# Line 2:
#     Col. 1: Time results were received.
#     Col. 2: MD5 hash of participant's IP address.
#     Col. 3: Controller name.
#     Col. 4: Item number.
#     Col. 5: Element number.
#     Col. 6: Type.
#     Col. 7: Group.
#     Col. 8: html.
#     Col. 9: startValue.
#     Col. 10: endValue.
#     Col. 11: value.
#     Col. 12: _REACTION_TIME_.
1565034651,8e54ff731298b7074d720df618cd1e14,MultiSlider,49,0,EveryNot.Some.AllBias,14,Has Roy been invited to<b> all of </b>the Major League Gaming tournament?,0.00,100.00,99.17
1565034651,8e54ff731298b7074d720df618cd1e14,MultiSlider,49,0,EveryNot.Some.AllBias,14,Has Roy been invited to<b> any of </b>the Major League Gaming tournament?,0.00,100.00,50.00,17378.00
# Columns below this comment are as follows:
# 1. Time results were received.
# 2. MD5 hash of participant's IP address.
# 3. Controller name.
# 4. Item number.
# 5. Element number.
# 6. Type.
# 7. Group.
# 8. Sentence (or sentence MD5).
1565034651,8e54ff731298b7074d720df618cd1e14,MultiSlider,54,0,EveryNot.Some.HowManyBias,16,A tech start-up is facing some financial issues. During an HR meeting%2C the board discussed how much they had to downsize.
1565034651,8e54ff731298b7074d720df618cd1e14,MultiSlider,54,0,EveryNot.Some.HowManyBias,16,How relevant are the following questions for the story?
# The lines below this comment are in groups of 2.
# The formats of the lines in each of these groups are as follows:
#
# Line 1:
#     Col. 1: Time results were received.
#     Col. 2: MD5 hash of participant's IP address.
#     Col. 3: Controller name.
#     Col. 4: Item number.
#     Col. 5: Element number.
#     Col. 6: Type.
#     Col. 7: Group.
#     Col. 8: html1.
#     Col. 9: startValue.
#     Col. 10: endValue.
#     Col. 11: value.
# Line 2:
#     Col. 1: Time results were received.
#     Col. 2: MD5 hash of participant's IP address.
#     Col. 3: Controller name.
#     Col. 4: Item number.
#     Col. 5: Element number.
#     Col. 6: Type.
#     Col. 7: Group.
#     Col. 8: html.
#     Col. 9: startValue.
#     Col. 10: endValue.
#     Col. 11: value.
#     Col. 12: _REACTION_TIME_.
1565034651,8e54ff731298b7074d720df618cd1e14,MultiSlider,54,0,EveryNot.Some.HowManyBias,16,Will<b> all of </b>of the employees be fired?,0.00,100.00,0.83
1565034651,8e54ff731298b7074d720df618cd1e14,MultiSlider,54,0,EveryNot.Some.HowManyBias,16,<b>How many</b> of the employees will be fired?,0.00,100.00,98.50,20786.00
# Columns below this comment are as follows:
# 1. Time results were received.
# 2. MD5 hash of participant's IP address.
# 3. Controller name.
# 4. Item number.
# 5. Element number.
# 6. Type.
# 7. Group.
# 8. Sentence (or sentence MD5).
1565034651,8e54ff731298b7074d720df618cd1e14,MultiSlider,67,0,EveryNot.None.AllBias,20,Helena is a mediocre athlete who made a resolution to win three Olympic medals this year. Her coach thought that she would do her country proud by winning every medal.
1565034651,8e54ff731298b7074d720df618cd1e14,MultiSlider,67,0,EveryNot.None.AllBias,20,How relevant are the following questions for the story?
# The lines below this comment are in groups of 2.
# The formats of the lines in each of these groups are as follows:
#
# Line 1:
#     Col. 1: Time results were received.
#     Col. 2: MD5 hash of participant's IP address.
#     Col. 3: Controller name.
#     Col. 4: Item number.
#     Col. 5: Element number.
#     Col. 6: Type.
#     Col. 7: Group.
#     Col. 8: html1.
#     Col. 9: startValue.
#     Col. 10: endValue.
#     Col. 11: value.
# Line 2:
#     Col. 1: Time results were received.
#     Col. 2: MD5 hash of participant's IP address.
#     Col. 3: Controller name.
#     Col. 4: Item number.
#     Col. 5: Element number.
#     Col. 6: Type.
#     Col. 7: Group.
#     Col. 8: html2.
#     Col. 9: startValue.
#     Col. 10: endValue.
#     Col. 11: value.
1565034651,8e54ff731298b7074d720df618cd1e14,MultiSlider,67,0,EveryNot.None.AllBias,20,<b>How many</b> of the medals did she win?,0.00,100.00,99.50
1565034651,8e54ff731298b7074d720df618cd1e14,MultiSlider,67,0,EveryNot.None.AllBias,20,Did she win<b> all of </b> the medals?,0.00,100.00,99.17
# The lines below this comment are in groups of 2.
# The formats of the lines in each of these groups are as follows:
#
# Line 1:
#     Col. 1: Time results were received.
#     Col. 2: MD5 hash of participant's IP address.
#     Col. 3: Controller name.
#     Col. 4: Item number.
#     Col. 5: Element number.
#     Col. 6: Type.
#     Col. 7: Group.
#     Col. 8: html.
#     Col. 9: startValue.
#     Col. 10: endValue.
#     Col. 11: value.
#     Col. 12: _REACTION_TIME_.
# Line 2:
#     Col. 1: Time results were received.
#     Col. 2: MD5 hash of participant's IP address.
#     Col. 3: Controller name.
#     Col. 4: Item number.
#     Col. 5: Element number.
#     Col. 6: Type.
#     Col. 7: Group.
#     Col. 8: Sentence (or sentence MD5).
1565034651,8e54ff731298b7074d720df618cd1e14,MultiSlider,67,0,EveryNot.None.AllBias,20,Did she win<b> any of </b>the medals?,0.00,100.00,50.00,22061.00
1565034651,8e54ff731298b7074d720df618cd1e14,MultiSlider,45,0,EveryNot.Some.HowManyBias,13,Lily inherited her mom's huge book collection. When her boyfriend visited%2C he wondered how much of this collection Lily had cataloged thus far.
# The lines below this comment are in groups of 2.
# The formats of the lines in each of these groups are as follows:
#
# Line 1:
#     Col. 1: Time results were received.
#     Col. 2: MD5 hash of participant's IP address.
#     Col. 3: Controller name.
#     Col. 4: Item number.
#     Col. 5: Element number.
#     Col. 6: Type.
#     Col. 7: Group.
#     Col. 8: Sentence (or sentence MD5).
# Line 2:
#     Col. 1: Time results were received.
#     Col. 2: MD5 hash of participant's IP address.
#     Col. 3: Controller name.
#     Col. 4: Item number.
#     Col. 5: Element number.
#     Col. 6: Type.
#     Col. 7: Group.
#     Col. 8: html1.
#     Col. 9: startValue.
#     Col. 10: endValue.
#     Col. 11: value.
1565034651,8e54ff731298b7074d720df618cd1e14,MultiSlider,45,0,EveryNot.Some.HowManyBias,13,How relevant are the following questions for the story?
1565034651,8e54ff731298b7074d720df618cd1e14,MultiSlider,45,0,EveryNot.Some.HowManyBias,13,<b>Have all</b> of the books been cataloged?,0.00,100.00,97.50
# The lines below this comment are in groups of 2.
# The formats of the lines in each of these groups are as follows:
#
# Line 1:
#     Col. 1: Time results were received.
#     Col. 2: MD5 hash of participant's IP address.
#     Col. 3: Controller name.
#     Col. 4: Item number.
#     Col. 5: Element number.
#     Col. 6: Type.
#     Col. 7: Group.
#     Col. 8: html2.
#     Col. 9: startValue.
#     Col. 10: endValue.
#     Col. 11: value.
# Line 2:
#     Col. 1: Time results were received.
#     Col. 2: MD5 hash of participant's IP address.
#     Col. 3: Controller name.
#     Col. 4: Item number.
#     Col. 5: Element number.
#     Col. 6: Type.
#     Col. 7: Group.
#     Col. 8: html.
#     Col. 9: startValue.
#     Col. 10: endValue.
#     Col. 11: value.
#     Col. 12: _REACTION_TIME_.
1565034651,8e54ff731298b7074d720df618cd1e14,MultiSlider,45,0,EveryNot.Some.HowManyBias,13,<b>Have any</b> of the books been cataloged?,0.00,100.00,19.17
1565034651,8e54ff731298b7074d720df618cd1e14,MultiSlider,45,0,EveryNot.Some.HowManyBias,13,<b>How many</b> of the books have been cataloged?,0.00,100.00,98.17,44901.00
# Columns below this comment are as follows:
# 1. Time results were received.
# 2. MD5 hash of participant's IP address.
# 3. Controller name.
# 4. Item number.
# 5. Element number.
# 6. Type.
# 7. Group.
# 8. Sentence (or sentence MD5).
1565034651,8e54ff731298b7074d720df618cd1e14,MultiSlider,71,0,EveryNot.None.NoneBias,21,Julia is a straight-A student. This semester%2C she enrolled for the easiest classes. After the semester%2C her mother phoned her to find out whether her daughter had aced all of her classes.
1565034651,8e54ff731298b7074d720df618cd1e14,MultiSlider,71,0,EveryNot.None.NoneBias,21,How relevant are the following questions for the story?
# Columns below this comment are as follows:
# 1. Time results were received.
# 2. MD5 hash of participant's IP address.
# 3. Controller name.
# 4. Item number.
# 5. Element number.
# 6. Type.
# 7. Group.
# 8. html1.
# 9. startValue.
# 10. endValue.
# 11. value.
1565034651,8e54ff731298b7074d720df618cd1e14,MultiSlider,71,0,EveryNot.None.NoneBias,21,Did Julia fail<b> any of </b>the classes?,0.00,100.00,2.17
1565034651,8e54ff731298b7074d720df618cd1e14,MultiSlider,71,0,EveryNot.None.NoneBias,21,Did Julia fail<b> any of </b>the classes?,0.00,100.00,28.17
# The lines below this comment are in groups of 2.
# The formats of the lines in each of these groups are as follows:
#
# Line 1:
#     Col. 1: Time results were received.
#     Col. 2: MD5 hash of participant's IP address.
#     Col. 3: Controller name.
#     Col. 4: Item number.
#     Col. 5: Element number.
#     Col. 6: Type.
#     Col. 7: Group.
#     Col. 8: html2.
#     Col. 9: startValue.
#     Col. 10: endValue.
#     Col. 11: value.
# Line 2:
#     Col. 1: Time results were received.
#     Col. 2: MD5 hash of participant's IP address.
#     Col. 3: Controller name.
#     Col. 4: Item number.
#     Col. 5: Element number.
#     Col. 6: Type.
#     Col. 7: Group.
#     Col. 8: html.
#     Col. 9: startValue.
#     Col. 10: endValue.
#     Col. 11: value.
#     Col. 12: _REACTION_TIME_.
1565034651,8e54ff731298b7074d720df618cd1e14,MultiSlider,71,0,EveryNot.None.NoneBias,21,<b>How many</b> of the classes did Julia fail?,0.00,100.00,2.17
1565034651,8e54ff731298b7074d720df618cd1e14,MultiSlider,71,0,EveryNot.None.NoneBias,21,Did Julia fail<b> all of </b> the classes?,0.00,100.00,2.83,21300.00
# Columns below this comment are as follows:
# 1. Time results were received.
# 2. MD5 hash of participant's IP address.
# 3. Controller name.
# 4. Item number.
# 5. Element number.
# 6. Type.
# 7. Group.
# 8. Sentence (or sentence MD5).
1565034651,8e54ff731298b7074d720df618cd1e14,MultiSlider,62,0,EveryNot.None.NoneBias,18,Paul lives on a sheep farm his parents bought for him%2C but plays video games all day. His parents called him and warned him that he must sell at least one sheep to be able to continue living at the farm.
1565034651,8e54ff731298b7074d720df618cd1e14,MultiSlider,62,0,EveryNot.None.NoneBias,18,How relevant are the following questions for the story?
# The lines below this comment are in groups of 2.
# The formats of the lines in each of these groups are as follows:
#
# Line 1:
#     Col. 1: Time results were received.
#     Col. 2: MD5 hash of participant's IP address.
#     Col. 3: Controller name.
#     Col. 4: Item number.
#     Col. 5: Element number.
#     Col. 6: Type.
#     Col. 7: Group.
#     Col. 8: html1.
#     Col. 9: startValue.
#     Col. 10: endValue.
#     Col. 11: value.
# Line 2:
#     Col. 1: Time results were received.
#     Col. 2: MD5 hash of participant's IP address.
#     Col. 3: Controller name.
#     Col. 4: Item number.
#     Col. 5: Element number.
#     Col. 6: Type.
#     Col. 7: Group.
#     Col. 8: html.
#     Col. 9: startValue.
#     Col. 10: endValue.
#     Col. 11: value.
#     Col. 12: _REACTION_TIME_.
1565034651,8e54ff731298b7074d720df618cd1e14,MultiSlider,62,0,EveryNot.None.NoneBias,18,<b>Have any</b> of the sheep been sold?,0.00,100.00,1.17
1565034651,8e54ff731298b7074d720df618cd1e14,MultiSlider,62,0,EveryNot.None.NoneBias,18,<b>Have all</b> of the sheep been sold?,0.00,100.00,1.17,29659.00
# Columns below this comment are as follows:
# 1. Time results were received.
# 2. MD5 hash of participant's IP address.
# 3. Controller name.
# 4. Item number.
# 5. Element number.
# 6. Type.
# 7. Group.
# 8. Sentence (or sentence MD5).
1565034651,8e54ff731298b7074d720df618cd1e14,MultiSlider,9,0,EveryNot.All.HowManyBias,1,The whole kindergarten was going on a field trip. The teacher did a head count to see how many children had been seated on the bus.
1565034651,8e54ff731298b7074d720df618cd1e14,MultiSlider,9,0,EveryNot.All.HowManyBias,1,How relevant are the following questions for the story?
# The lines below this comment are in groups of 2.
# The formats of the lines in each of these groups are as follows:
#
# Line 1:
#     Col. 1: Time results were received.
#     Col. 2: MD5 hash of participant's IP address.
#     Col. 3: Controller name.
#     Col. 4: Item number.
#     Col. 5: Element number.
#     Col. 6: Type.
#     Col. 7: Group.
#     Col. 8: html1.
#     Col. 9: startValue.
#     Col. 10: endValue.
#     Col. 11: value.
# Line 2:
#     Col. 1: Time results were received.
#     Col. 2: MD5 hash of participant's IP address.
#     Col. 3: Controller name.
#     Col. 4: Item number.
#     Col. 5: Element number.
#     Col. 6: Type.
#     Col. 7: Group.
#     Col. 8: html2.
#     Col. 9: startValue.
#     Col. 10: endValue.
#     Col. 11: value.
1565034651,8e54ff731298b7074d720df618cd1e14,MultiSlider,9,0,EveryNot.All.HowManyBias,1,<b>Did all</b> of the kindergartners get on the bus?,0.00,100.00,99.50
1565034651,8e54ff731298b7074d720df618cd1e14,MultiSlider,9,0,EveryNot.All.HowManyBias,1,<b>Did any</b> of the kindergartners get on the bus?,0.00,100.00,0.50
# The lines below this comment are in groups of 2.
# The formats of the lines in each of these groups are as follows:
#
# Line 1:
#     Col. 1: Time results were received.
#     Col. 2: MD5 hash of participant's IP address.
#     Col. 3: Controller name.
#     Col. 4: Item number.
#     Col. 5: Element number.
#     Col. 6: Type.
#     Col. 7: Group.
#     Col. 8: html.
#     Col. 9: startValue.
#     Col. 10: endValue.
#     Col. 11: value.
#     Col. 12: _REACTION_TIME_.
# Line 2:
#     Col. 1: Time results were received.
#     Col. 2: MD5 hash of participant's IP address.
#     Col. 3: Controller name.
#     Col. 4: Item number.
#     Col. 5: Element number.
#     Col. 6: Type.
#     Col. 7: Group.
#     Col. 8: Sentence (or sentence MD5).
1565034651,8e54ff731298b7074d720df618cd1e14,MultiSlider,9,0,EveryNot.All.HowManyBias,1,<b>How many</b> of the kindergartners got on the bus?,0.00,100.00,28.50,23798.00
1565034651,8e54ff731298b7074d720df618cd1e14,MultiSlider,27,0,EveryNot.All.HowManyBias,7,The nursery normally changes infants' diapers before they go to nap. This afternoon%2C a health inspector came to check how many infants had been changed before nap time.
# The lines below this comment are in groups of 2.
# The formats of the lines in each of these groups are as follows:
#
# Line 1:
#     Col. 1: Time results were received.
#     Col. 2: MD5 hash of participant's IP address.
#     Col. 3: Controller name.
#     Col. 4: Item number.
#     Col. 5: Element number.
#     Col. 6: Type.
#     Col. 7: Group.
#     Col. 8: Sentence (or sentence MD5).
# Line 2:
#     Col. 1: Time results were received.
#     Col. 2: MD5 hash of participant's IP address.
#     Col. 3: Controller name.
#     Col. 4: Item number.
#     Col. 5: Element number.
#     Col. 6: Type.
#     Col. 7: Group.
#     Col. 8: html1.
#     Col. 9: startValue.
#     Col. 10: endValue.
#     Col. 11: value.
1565034651,8e54ff731298b7074d720df618cd1e14,MultiSlider,27,0,EveryNot.All.HowManyBias,7,How relevant are the following questions for the story?
1565034651,8e54ff731298b7074d720df618cd1e14,MultiSlider,27,0,EveryNot.All.HowManyBias,7,<b>Have all</b> of the infants been changed?,0.00,100.00,71.17
# The lines below this comment are in groups of 2.
# The formats of the lines in each of these groups are as follows:
#
# Line 1:
#     Col. 1: Time results were received.
#     Col. 2: MD5 hash of participant's IP address.
#     Col. 3: Controller name.
#     Col. 4: Item number.
#     Col. 5: Element number.
#     Col. 6: Type.
#     Col. 7: Group.
#     Col. 8: html2.
#     Col. 9: startValue.
#     Col. 10: endValue.
#     Col. 11: value.
# Line 2:
#     Col. 1: Time results were received.
#     Col. 2: MD5 hash of participant's IP address.
#     Col. 3: Controller name.
#     Col. 4: Item number.
#     Col. 5: Element number.
#     Col. 6: Type.
#     Col. 7: Group.
#     Col. 8: html.
#     Col. 9: startValue.
#     Col. 10: endValue.
#     Col. 11: value.
#     Col. 12: _REACTION_TIME_.
1565034651,8e54ff731298b7074d720df618cd1e14,MultiSlider,27,0,EveryNot.All.HowManyBias,7,<b>Have any</b> of the infants been changed?,0.00,100.00,2.50
1565034651,8e54ff731298b7074d720df618cd1e14,MultiSlider,27,0,EveryNot.All.HowManyBias,7,<b>How many</b> of the infants have been changed,0.00,100.00,25.83,54833.00
# Columns below this comment are as follows:
# 1. Time results were received.
# 2. MD5 hash of participant's IP address.
# 3. Controller name.
# 4. Item number.
# 5. Element number.
# 6. Type.
# 7. Group.
# 8. Sentence (or sentence MD5).
1565034651,8e54ff731298b7074d720df618cd1e14,MultiSlider,13,0,EveryNot.All.AllBias,2,Erin is a vet. During her last trip%2C she encountered six deer in critical condition%2C and she did the best she could to save all their lives.
1565034651,8e54ff731298b7074d720df618cd1e14,MultiSlider,13,0,EveryNot.All.AllBias,2,How relevant are the following questions for the story?
# The lines below this comment are in groups of 2.
# The formats of the lines in each of these groups are as follows:
#
# Line 1:
#     Col. 1: Time results were received.
#     Col. 2: MD5 hash of participant's IP address.
#     Col. 3: Controller name.
#     Col. 4: Item number.
#     Col. 5: Element number.
#     Col. 6: Type.
#     Col. 7: Group.
#     Col. 8: html1.
#     Col. 9: startValue.
#     Col. 10: endValue.
#     Col. 11: value.
# Line 2:
#     Col. 1: Time results were received.
#     Col. 2: MD5 hash of participant's IP address.
#     Col. 3: Controller name.
#     Col. 4: Item number.
#     Col. 5: Element number.
#     Col. 6: Type.
#     Col. 7: Group.
#     Col. 8: html2.
#     Col. 9: startValue.
#     Col. 10: endValue.
#     Col. 11: value.
1565034651,8e54ff731298b7074d720df618cd1e14,MultiSlider,13,0,EveryNot.All.AllBias,2,<b>How many</b> of the six deer survived?,0.00,100.00,98.83
1565034651,8e54ff731298b7074d720df618cd1e14,MultiSlider,13,0,EveryNot.All.AllBias,2,<b>Did all</b> of the six deer survive?,0.00,100.00,98.17
# The lines below this comment are in groups of 2.
# The formats of the lines in each of these groups are as follows:
#
# Line 1:
#     Col. 1: Time results were received.
#     Col. 2: MD5 hash of participant's IP address.
#     Col. 3: Controller name.
#     Col. 4: Item number.
#     Col. 5: Element number.
#     Col. 6: Type.
#     Col. 7: Group.
#     Col. 8: html.
#     Col. 9: startValue.
#     Col. 10: endValue.
#     Col. 11: value.
#     Col. 12: _REACTION_TIME_.
# Line 2:
#     Col. 1: Time results were received.
#     Col. 2: MD5 hash of participant's IP address.
#     Col. 3: Controller name.
#     Col. 4: Item number.
#     Col. 5: Element number.
#     Col. 6: Type.
#     Col. 7: Group.
#     Col. 8: Sentence (or sentence MD5).
1565034651,8e54ff731298b7074d720df618cd1e14,MultiSlider,13,0,EveryNot.All.AllBias,2,<b>Did any</b> of the six deer survive?,0.00,100.00,0.00,18991.00
1565034651,8e54ff731298b7074d720df618cd1e14,MultiSlider,63,0,EveryNot.None.HowManyBias,19,Bill is an average runner who tried to break five Guinness records of running. At the day of the challenge%2C he tried hard to break as many records as he could.
# The lines below this comment are in groups of 2.
# The formats of the lines in each of these groups are as follows:
#
# Line 1:
#     Col. 1: Time results were received.
#     Col. 2: MD5 hash of participant's IP address.
#     Col. 3: Controller name.
#     Col. 4: Item number.
#     Col. 5: Element number.
#     Col. 6: Type.
#     Col. 7: Group.
#     Col. 8: Sentence (or sentence MD5).
# Line 2:
#     Col. 1: Time results were received.
#     Col. 2: MD5 hash of participant's IP address.
#     Col. 3: Controller name.
#     Col. 4: Item number.
#     Col. 5: Element number.
#     Col. 6: Type.
#     Col. 7: Group.
#     Col. 8: html1.
#     Col. 9: startValue.
#     Col. 10: endValue.
#     Col. 11: value.
1565034651,8e54ff731298b7074d720df618cd1e14,MultiSlider,63,0,EveryNot.None.HowManyBias,19,How relevant are the following questions for the story?
1565034651,8e54ff731298b7074d720df618cd1e14,MultiSlider,63,0,EveryNot.None.HowManyBias,19,<b>Were all</b> of the records broken in the end?,0.00,100.00,99.83
# The lines below this comment are in groups of 2.
# The formats of the lines in each of these groups are as follows:
#
# Line 1:
#     Col. 1: Time results were received.
#     Col. 2: MD5 hash of participant's IP address.
#     Col. 3: Controller name.
#     Col. 4: Item number.
#     Col. 5: Element number.
#     Col. 6: Type.
#     Col. 7: Group.
#     Col. 8: html2.
#     Col. 9: startValue.
#     Col. 10: endValue.
#     Col. 11: value.
# Line 2:
#     Col. 1: Time results were received.
#     Col. 2: MD5 hash of participant's IP address.
#     Col. 3: Controller name.
#     Col. 4: Item number.
#     Col. 5: Element number.
#     Col. 6: Type.
#     Col. 7: Group.
#     Col. 8: html.
#     Col. 9: startValue.
#     Col. 10: endValue.
#     Col. 11: value.
#     Col. 12: _REACTION_TIME_.
1565034651,8e54ff731298b7074d720df618cd1e14,MultiSlider,63,0,EveryNot.None.HowManyBias,19,<b>Were any</b> of the records broken in the end?,0.00,100.00,24.17
1565034651,8e54ff731298b7074d720df618cd1e14,MultiSlider,63,0,EveryNot.None.HowManyBias,19,<b>How many</b> of the records were broken in the end?,0.00,100.00,75.83,56626.00
# Columns below this comment are as follows:
# 1. Time results were received.
# 2. MD5 hash of participant's IP address.
# 3. Controller name.
# 4. Item number.
# 5. Element number.
# 6. Type.
# 7. Group.
# 8. Sentence (or sentence MD5).
1565034651,8e54ff731298b7074d720df618cd1e14,MultiSlider,22,0,EveryNot.All.AllBias,5,Paula is a dedicated store assistant. A week ago%2C five boxes of new products had arrived at the store. Her manager asked if she had already opened the boxes.
1565034651,8e54ff731298b7074d720df618cd1e14,MultiSlider,22,0,EveryNot.All.AllBias,5,How relevant are the following questions for the story?
# The lines below this comment are in groups of 2.
# The formats of the lines in each of these groups are as follows:
#
# Line 1:
#     Col. 1: Time results were received.
#     Col. 2: MD5 hash of participant's IP address.
#     Col. 3: Controller name.
#     Col. 4: Item number.
#     Col. 5: Element number.
#     Col. 6: Type.
#     Col. 7: Group.
#     Col. 8: html1.
#     Col. 9: startValue.
#     Col. 10: endValue.
#     Col. 11: value.
# Line 2:
#     Col. 1: Time results were received.
#     Col. 2: MD5 hash of participant's IP address.
#     Col. 3: Controller name.
#     Col. 4: Item number.
#     Col. 5: Element number.
#     Col. 6: Type.
#     Col. 7: Group.
#     Col. 8: html2.
#     Col. 9: startValue.
#     Col. 10: endValue.
#     Col. 11: value.
1565034651,8e54ff731298b7074d720df618cd1e14,MultiSlider,22,0,EveryNot.All.AllBias,5,<b>How many</b> of the boxes have been opened?,0.00,100.00,98.17
1565034651,8e54ff731298b7074d720df618cd1e14,MultiSlider,22,0,EveryNot.All.AllBias,5,<b>Have all</b> of the boxes been opened?,0.00,100.00,98.83
# The lines below this comment are in groups of 2.
# The formats of the lines in each of these groups are as follows:
#
# Line 1:
#     Col. 1: Time results were received.
#     Col. 2: MD5 hash of participant's IP address.
#     Col. 3: Controller name.
#     Col. 4: Item number.
#     Col. 5: Element number.
#     Col. 6: Type.
#     Col. 7: Group.
#     Col. 8: html.
#     Col. 9: startValue.
#     Col. 10: endValue.
#     Col. 11: value.
#     Col. 12: _REACTION_TIME_.
# Line 2:
#     Col. 1: Time results were received.
#     Col. 2: MD5 hash of participant's IP address.
#     Col. 3: Controller name.
#     Col. 4: Item number.
#     Col. 5: Element number.
#     Col. 6: Type.
#     Col. 7: Group.
#     Col. 8: Sentence (or sentence MD5).
1565034651,8e54ff731298b7074d720df618cd1e14,MultiSlider,22,0,EveryNot.All.AllBias,5,<b>Have any</b> of the boxes been opened?,0.00,100.00,1.83,24794.00
1565034651,8e54ff731298b7074d720df618cd1e14,MultiSlider,80,0,EveryNot.None.NoneBias,24,Wayne is a diligent therapist who is always there for his patients. Today%2C he has a minor flu. His assistant asks if she has to cancel any of his appointments.
# The lines below this comment are in groups of 2.
# The formats of the lines in each of these groups are as follows:
#
# Line 1:
#     Col. 1: Time results were received.
#     Col. 2: MD5 hash of participant's IP address.
#     Col. 3: Controller name.
#     Col. 4: Item number.
#     Col. 5: Element number.
#     Col. 6: Type.
#     Col. 7: Group.
#     Col. 8: Sentence (or sentence MD5).
# Line 2:
#     Col. 1: Time results were received.
#     Col. 2: MD5 hash of participant's IP address.
#     Col. 3: Controller name.
#     Col. 4: Item number.
#     Col. 5: Element number.
#     Col. 6: Type.
#     Col. 7: Group.
#     Col. 8: html1.
#     Col. 9: startValue.
#     Col. 10: endValue.
#     Col. 11: value.
1565034651,8e54ff731298b7074d720df618cd1e14,MultiSlider,80,0,EveryNot.None.NoneBias,24,How relevant are the following questions for the story?
1565034651,8e54ff731298b7074d720df618cd1e14,MultiSlider,80,0,EveryNot.None.NoneBias,24,<b>Were any</b> of the appointments cancelled?,0.00,100.00,99.17
# The lines below this comment are in groups of 2.
# The formats of the lines in each of these groups are as follows:
#
# Line 1:
#     Col. 1: Time results were received.
#     Col. 2: MD5 hash of participant's IP address.
#     Col. 3: Controller name.
#     Col. 4: Item number.
#     Col. 5: Element number.
#     Col. 6: Type.
#     Col. 7: Group.
#     Col. 8: html2.
#     Col. 9: startValue.
#     Col. 10: endValue.
#     Col. 11: value.
# Line 2:
#     Col. 1: Time results were received.
#     Col. 2: MD5 hash of participant's IP address.
#     Col. 3: Controller name.
#     Col. 4: Item number.
#     Col. 5: Element number.
#     Col. 6: Type.
#     Col. 7: Group.
#     Col. 8: html.
#     Col. 9: startValue.
#     Col. 10: endValue.
#     Col. 11: value.
#     Col. 12: _REACTION_TIME_.
1565034651,8e54ff731298b7074d720df618cd1e14,MultiSlider,80,0,EveryNot.None.NoneBias,24,<b>How many</b> of the appointments were cancelled?,0.00,100.00,25.17
1565034651,8e54ff731298b7074d720df618cd1e14,MultiSlider,80,0,EveryNot.None.NoneBias,24,<b>Were all</b> of the appointments cancelled?,0.00,100.00,66.17,26563.00
# Columns below this comment are as follows:
# 1. Time results were received.
# 2. MD5 hash of participant's IP address.
# 3. Controller name.
# 4. Item number.
# 5. Element number.
# 6. Type.
# 7. Group.
# 8. Sentence (or sentence MD5).
1565034651,8e54ff731298b7074d720df618cd1e14,MultiSlider,31,0,EveryNot.All.AllBias,8,A glamorous cocktail event was being held in the Hilton hotel. When guests arrived%2C the receptionist checked to make sure everyone had observed the dress code.
1565034651,8e54ff731298b7074d720df618cd1e14,MultiSlider,31,0,EveryNot.All.AllBias,8,How relevant are the following questions for the story?
# The lines below this comment are in groups of 2.
# The formats of the lines in each of these groups are as follows:
#
# Line 1:
#     Col. 1: Time results were received.
#     Col. 2: MD5 hash of participant's IP address.
#     Col. 3: Controller name.
#     Col. 4: Item number.
#     Col. 5: Element number.
#     Col. 6: Type.
#     Col. 7: Group.
#     Col. 8: html2.
#     Col. 9: startValue.
#     Col. 10: endValue.
#     Col. 11: value.
# Line 2:
#     Col. 1: Time results were received.
#     Col. 2: MD5 hash of participant's IP address.
#     Col. 3: Controller name.
#     Col. 4: Item number.
#     Col. 5: Element number.
#     Col. 6: Type.
#     Col. 7: Group.
#     Col. 8: html.
#     Col. 9: startValue.
#     Col. 10: endValue.
#     Col. 11: value.
#     Col. 12: _REACTION_TIME_.
1565034651,8e54ff731298b7074d720df618cd1e14,MultiSlider,31,0,EveryNot.All.AllBias,8,<b>Were all</b> of the guests dressed properly?,0.00,100.00,97.17
1565034651,8e54ff731298b7074d720df618cd1e14,MultiSlider,31,0,EveryNot.All.AllBias,8,<b>Were any</b> of the guests dressed properly?,0.00,100.00,0.17,26435.00
# Columns below this comment are as follows:
# 1. Time results were received.
# 2. MD5 hash of participant's IP address.
# 3. Controller name.
# 4. Item number.
# 5. Element number.
# 6. Type.
# 7. Group.
# 8. Sentence (or sentence MD5).
1565034651,8e54ff731298b7074d720df618cd1e14,MultiSlider,76,0,EveryNot.None.AllBias,23,The hospital has the best doctors in the country. One day%2C five patients had to be operated on for fractures in arms and legs. Afterwards%2C a news reporter asked whether the patients had been successfully treated.
1565034651,8e54ff731298b7074d720df618cd1e14,MultiSlider,76,0,EveryNot.None.AllBias,23,How relevant are the following questions for the story?
# The lines below this comment are in groups of 2.
# The formats of the lines in each of these groups are as follows:
#
# Line 1:
#     Col. 1: Time results were received.
#     Col. 2: MD5 hash of participant's IP address.
#     Col. 3: Controller name.
#     Col. 4: Item number.
#     Col. 5: Element number.
#     Col. 6: Type.
#     Col. 7: Group.
#     Col. 8: html1.
#     Col. 9: startValue.
#     Col. 10: endValue.
#     Col. 11: value.
# Line 2:
#     Col. 1: Time results were received.
#     Col. 2: MD5 hash of participant's IP address.
#     Col. 3: Controller name.
#     Col. 4: Item number.
#     Col. 5: Element number.
#     Col. 6: Type.
#     Col. 7: Group.
#     Col. 8: html2.
#     Col. 9: startValue.
#     Col. 10: endValue.
#     Col. 11: value.
1565034651,8e54ff731298b7074d720df618cd1e14,MultiSlider,76,0,EveryNot.None.AllBias,23,<b>How many</b> of the operations were successful?,0.00,100.00,73.50
1565034651,8e54ff731298b7074d720df618cd1e14,MultiSlider,76,0,EveryNot.None.AllBias,23,<b>Were all</b> of the operations successful?,0.00,100.00,96.17
# The lines below this comment are in groups of 2.
# The formats of the lines in each of these groups are as follows:
#
# Line 1:
#     Col. 1: Time results were received.
#     Col. 2: MD5 hash of participant's IP address.
#     Col. 3: Controller name.
#     Col. 4: Item number.
#     Col. 5: Element number.
#     Col. 6: Type.
#     Col. 7: Group.
#     Col. 8: html.
#     Col. 9: startValue.
#     Col. 10: endValue.
#     Col. 11: value.
#     Col. 12: _REACTION_TIME_.
# Line 2:
#     Col. 1: Time results were received.
#     Col. 2: MD5 hash of participant's IP address.
#     Col. 3: Controller name.
#     Col. 4: Item number.
#     Col. 5: Element number.
#     Col. 6: Type.
#     Col. 7: Group.
#     Col. 8: Field name.
#     Col. 9: Field value.
1565034651,8e54ff731298b7074d720df618cd1e14,MultiSlider,76,0,EveryNot.None.AllBias,23,<b>Were any</b> of the operations successful?,0.00,100.00,0.50,42403.00
1565034651,8e54ff731298b7074d720df618cd1e14,Form,8,0,end_experiment,NULL,_REACTION_TIME_,3735
#
# Results on Monday August 05 2019 20:02:24 UTC.
# USER AGENT: Mozilla/5.0 (Windows NT 10.0; Win64; x64) AppleWebKit/537.36 (KHTML, like Gecko) Chrome/75.0.3770.142 Safari/537.36
# Design number was non-random = 2
#
# Columns below this comment are as follows:
# 1. Time results were received.
# 2. MD5 hash of participant's IP address.
# 3. Controller name.
# 4. Item number.
# 5. Element number.
# 6. Type.
# 7. Group.
# 8. Field name.
# 9. Field value.
1565035344,bc55f2b90b02d74831f044d1631a0ff4,Form,6,0,consent,NULL,consent,yes
1565035344,bc55f2b90b02d74831f044d1631a0ff4,Form,6,0,consent,NULL,_REACTION_TIME_,27806
1565035344,bc55f2b90b02d74831f044d1631a0ff4,Form,1,0,intro,NULL,age,20
1565035344,bc55f2b90b02d74831f044d1631a0ff4,Form,1,0,intro,NULL,natlang,English
1565035344,bc55f2b90b02d74831f044d1631a0ff4,Form,1,0,intro,NULL,otherlang,Spanish
1565035344,bc55f2b90b02d74831f044d1631a0ff4,Form,1,0,intro,NULL,Prolific,5c1829ace7b8770001c80d80
1565035344,bc55f2b90b02d74831f044d1631a0ff4,Form,1,0,intro,NULL,gender,male
1565035344,bc55f2b90b02d74831f044d1631a0ff4,Form,1,0,intro,NULL,_REACTION_TIME_,11563
1565035344,bc55f2b90b02d74831f044d1631a0ff4,Form,2,0,intro1,NULL,_REACTION_TIME_,7449
1565035344,bc55f2b90b02d74831f044d1631a0ff4,Form,3,0,intro2,NULL,_REACTION_TIME_,15502
1565035344,bc55f2b90b02d74831f044d1631a0ff4,Form,4,0,intro3,NULL,_REACTION_TIME_,10415
# Columns below this comment are as follows:
# 1. Time results were received.
# 2. MD5 hash of participant's IP address.
# 3. Controller name.
# 4. Item number.
# 5. Element number.
# 6. Type.
# 7. Group.
# 8. Sentence (or sentence MD5).
1565035344,bc55f2b90b02d74831f044d1631a0ff4,MultiSlider,29,0,EveryNot.All.NoneBias,7,The nursery normally changes infants' diapers before they go to nap. This afternoon%2C a health inspector wanted to see if any of the infants had been changed before nap time.
1565035344,bc55f2b90b02d74831f044d1631a0ff4,MultiSlider,29,0,EveryNot.All.NoneBias,7,How relevant are the following questions for the story?
# Columns below this comment are as follows:
# 1. Time results were received.
# 2. MD5 hash of participant's IP address.
# 3. Controller name.
# 4. Item number.
# 5. Element number.
# 6. Type.
# 7. Group.
# 8. html1.
# 9. startValue.
# 10. endValue.
# 11. value.
1565035344,bc55f2b90b02d74831f044d1631a0ff4,MultiSlider,29,0,EveryNot.All.NoneBias,7,<b>Have all</b> of the infants been changed?,0.00,100.00,64.50
1565035344,bc55f2b90b02d74831f044d1631a0ff4,MultiSlider,29,0,EveryNot.All.NoneBias,7,<b>Have all</b> of the infants been changed?,0.00,100.00,79.50
1565035344,bc55f2b90b02d74831f044d1631a0ff4,MultiSlider,29,0,EveryNot.All.NoneBias,7,<b>Have all</b> of the infants been changed?,0.00,100.00,97.17
1565035344,bc55f2b90b02d74831f044d1631a0ff4,MultiSlider,29,0,EveryNot.All.NoneBias,7,<b>Have all</b> of the infants been changed?,0.00,100.00,3.83
1565035344,bc55f2b90b02d74831f044d1631a0ff4,MultiSlider,29,0,EveryNot.All.NoneBias,7,<b>Have all</b> of the infants been changed?,0.00,100.00,97.83
# Columns below this comment are as follows:
# 1. Time results were received.
# 2. MD5 hash of participant's IP address.
# 3. Controller name.
# 4. Item number.
# 5. Element number.
# 6. Type.
# 7. Group.
# 8. html2.
# 9. startValue.
# 10. endValue.
# 11. value.
1565035344,bc55f2b90b02d74831f044d1631a0ff4,MultiSlider,29,0,EveryNot.All.NoneBias,7,<b>Have any</b> of the infants been changed?,0.00,100.00,1.17
1565035344,bc55f2b90b02d74831f044d1631a0ff4,MultiSlider,29,0,EveryNot.All.NoneBias,7,<b>Have any</b> of the infants been changed?,0.00,100.00,97.17
# The lines below this comment are in groups of 2.
# The formats of the lines in each of these groups are as follows:
#
# Line 1:
#     Col. 1: Time results were received.
#     Col. 2: MD5 hash of participant's IP address.
#     Col. 3: Controller name.
#     Col. 4: Item number.
#     Col. 5: Element number.
#     Col. 6: Type.
#     Col. 7: Group.
#     Col. 8: html.
#     Col. 9: startValue.
#     Col. 10: endValue.
#     Col. 11: value.
#     Col. 12: _REACTION_TIME_.
# Line 2:
#     Col. 1: Time results were received.
#     Col. 2: MD5 hash of participant's IP address.
#     Col. 3: Controller name.
#     Col. 4: Item number.
#     Col. 5: Element number.
#     Col. 6: Type.
#     Col. 7: Group.
#     Col. 8: Sentence (or sentence MD5).
1565035344,bc55f2b90b02d74831f044d1631a0ff4,MultiSlider,29,0,EveryNot.All.NoneBias,7,<b>How many</b> of the infants have been changed,0.00,100.00,2.17,29300.00
1565035344,bc55f2b90b02d74831f044d1631a0ff4,MultiSlider,61,0,EveryNot.None.AllBias,18,Paul lives on a sheep farm his parents bought for him%2C but plays video games all day. His parents called him and warned him that he must sell the entire herd to be able to continue living at the farm.
# The lines below this comment are in groups of 2.
# The formats of the lines in each of these groups are as follows:
#
# Line 1:
#     Col. 1: Time results were received.
#     Col. 2: MD5 hash of participant's IP address.
#     Col. 3: Controller name.
#     Col. 4: Item number.
#     Col. 5: Element number.
#     Col. 6: Type.
#     Col. 7: Group.
#     Col. 8: Sentence (or sentence MD5).
# Line 2:
#     Col. 1: Time results were received.
#     Col. 2: MD5 hash of participant's IP address.
#     Col. 3: Controller name.
#     Col. 4: Item number.
#     Col. 5: Element number.
#     Col. 6: Type.
#     Col. 7: Group.
#     Col. 8: html1.
#     Col. 9: startValue.
#     Col. 10: endValue.
#     Col. 11: value.
1565035344,bc55f2b90b02d74831f044d1631a0ff4,MultiSlider,61,0,EveryNot.None.AllBias,18,How relevant are the following questions for the story?
1565035344,bc55f2b90b02d74831f044d1631a0ff4,MultiSlider,61,0,EveryNot.None.AllBias,18,<b>Have any</b> of the sheep been sold?,0.00,100.00,97.50
# Columns below this comment are as follows:
# 1. Time results were received.
# 2. MD5 hash of participant's IP address.
# 3. Controller name.
# 4. Item number.
# 5. Element number.
# 6. Type.
# 7. Group.
# 8. html2.
# 9. startValue.
# 10. endValue.
# 11. value.
1565035344,bc55f2b90b02d74831f044d1631a0ff4,MultiSlider,61,0,EveryNot.None.AllBias,18,<b>How many</b> of the sheep have been sold?,0.00,100.00,96.83
1565035344,bc55f2b90b02d74831f044d1631a0ff4,MultiSlider,61,0,EveryNot.None.AllBias,18,<b>How many</b> of the sheep have been sold?,0.00,100.00,0.50
# The lines below this comment are in groups of 2.
# The formats of the lines in each of these groups are as follows:
#
# Line 1:
#     Col. 1: Time results were received.
#     Col. 2: MD5 hash of participant's IP address.
#     Col. 3: Controller name.
#     Col. 4: Item number.
#     Col. 5: Element number.
#     Col. 6: Type.
#     Col. 7: Group.
#     Col. 8: html.
#     Col. 9: startValue.
#     Col. 10: endValue.
#     Col. 11: value.
#     Col. 12: _REACTION_TIME_.
# Line 2:
#     Col. 1: Time results were received.
#     Col. 2: MD5 hash of participant's IP address.
#     Col. 3: Controller name.
#     Col. 4: Item number.
#     Col. 5: Element number.
#     Col. 6: Type.
#     Col. 7: Group.
#     Col. 8: Sentence (or sentence MD5).
1565035344,bc55f2b90b02d74831f044d1631a0ff4,MultiSlider,61,0,EveryNot.None.AllBias,18,<b>Have all</b> of the sheep been sold?,0.00,100.00,96.83,17820.00
1565035344,bc55f2b90b02d74831f044d1631a0ff4,MultiSlider,79,0,EveryNot.None.AllBias,24,Wayne is a diligent therapist who is always there for his patients. Today%2C he has a minor flu. His assistant asks if she has to clean out his entire schedule for the day.
# The lines below this comment are in groups of 2.
# The formats of the lines in each of these groups are as follows:
#
# Line 1:
#     Col. 1: Time results were received.
#     Col. 2: MD5 hash of participant's IP address.
#     Col. 3: Controller name.
#     Col. 4: Item number.
#     Col. 5: Element number.
#     Col. 6: Type.
#     Col. 7: Group.
#     Col. 8: Sentence (or sentence MD5).
# Line 2:
#     Col. 1: Time results were received.
#     Col. 2: MD5 hash of participant's IP address.
#     Col. 3: Controller name.
#     Col. 4: Item number.
#     Col. 5: Element number.
#     Col. 6: Type.
#     Col. 7: Group.
#     Col. 8: html1.
#     Col. 9: startValue.
#     Col. 10: endValue.
#     Col. 11: value.
1565035344,bc55f2b90b02d74831f044d1631a0ff4,MultiSlider,79,0,EveryNot.None.AllBias,24,How relevant are the following questions for the story?
1565035344,bc55f2b90b02d74831f044d1631a0ff4,MultiSlider,79,0,EveryNot.None.AllBias,24,<b>Were any</b> of the appointments cancelled?,0.00,100.00,98.17
# The lines below this comment are in groups of 2.
# The formats of the lines in each of these groups are as follows:
#
# Line 1:
#     Col. 1: Time results were received.
#     Col. 2: MD5 hash of participant's IP address.
#     Col. 3: Controller name.
#     Col. 4: Item number.
#     Col. 5: Element number.
#     Col. 6: Type.
#     Col. 7: Group.
#     Col. 8: html.
#     Col. 9: startValue.
#     Col. 10: endValue.
#     Col. 11: value.
#     Col. 12: _REACTION_TIME_.
# Line 2:
#     Col. 1: Time results were received.
#     Col. 2: MD5 hash of participant's IP address.
#     Col. 3: Controller name.
#     Col. 4: Item number.
#     Col. 5: Element number.
#     Col. 6: Type.
#     Col. 7: Group.
#     Col. 8: Sentence (or sentence MD5).
1565035344,bc55f2b90b02d74831f044d1631a0ff4,MultiSlider,79,0,EveryNot.None.AllBias,24,<b>Were all</b> of the appointments cancelled?,0.00,100.00,97.83,19654.00
1565035344,bc55f2b90b02d74831f044d1631a0ff4,MultiSlider,52,0,EveryNot.Some.AllBias,15,Barney has been submitting recipes to a famous cooking website for some time now. His partner asked whether all of his submissions had been posted on the website.
# The lines below this comment are in groups of 2.
# The formats of the lines in each of these groups are as follows:
#
# Line 1:
#     Col. 1: Time results were received.
#     Col. 2: MD5 hash of participant's IP address.
#     Col. 3: Controller name.
#     Col. 4: Item number.
#     Col. 5: Element number.
#     Col. 6: Type.
#     Col. 7: Group.
#     Col. 8: Sentence (or sentence MD5).
# Line 2:
#     Col. 1: Time results were received.
#     Col. 2: MD5 hash of participant's IP address.
#     Col. 3: Controller name.
#     Col. 4: Item number.
#     Col. 5: Element number.
#     Col. 6: Type.
#     Col. 7: Group.
#     Col. 8: html1.
#     Col. 9: startValue.
#     Col. 10: endValue.
#     Col. 11: value.
1565035344,bc55f2b90b02d74831f044d1631a0ff4,MultiSlider,52,0,EveryNot.Some.AllBias,15,How relevant are the following questions for the story?
1565035344,bc55f2b90b02d74831f044d1631a0ff4,MultiSlider,52,0,EveryNot.Some.AllBias,15,<b>Have any</b> of Barney's submissions been published?,0.00,100.00,97.83
# The lines below this comment are in groups of 2.
# The formats of the lines in each of these groups are as follows:
#
# Line 1:
#     Col. 1: Time results were received.
#     Col. 2: MD5 hash of participant's IP address.
#     Col. 3: Controller name.
#     Col. 4: Item number.
#     Col. 5: Element number.
#     Col. 6: Type.
#     Col. 7: Group.
#     Col. 8: html2.
#     Col. 9: startValue.
#     Col. 10: endValue.
#     Col. 11: value.
# Line 2:
#     Col. 1: Time results were received.
#     Col. 2: MD5 hash of participant's IP address.
#     Col. 3: Controller name.
#     Col. 4: Item number.
#     Col. 5: Element number.
#     Col. 6: Type.
#     Col. 7: Group.
#     Col. 8: html.
#     Col. 9: startValue.
#     Col. 10: endValue.
#     Col. 11: value.
#     Col. 12: _REACTION_TIME_.
1565035344,bc55f2b90b02d74831f044d1631a0ff4,MultiSlider,52,0,EveryNot.Some.AllBias,15,<b>How many</b> of Barney's submissions have been published?,0.00,100.00,97.50
1565035344,bc55f2b90b02d74831f044d1631a0ff4,MultiSlider,52,0,EveryNot.Some.AllBias,15,<b>Have all</b> of Barney's submissions been published?,0.00,100.00,1.50,17609.00
# Columns below this comment are as follows:
# 1. Time results were received.
# 2. MD5 hash of participant's IP address.
# 3. Controller name.
# 4. Item number.
# 5. Element number.
# 6. Type.
# 7. Group.
# 8. Sentence (or sentence MD5).
1565035344,bc55f2b90b02d74831f044d1631a0ff4,MultiSlider,38,0,EveryNot.Some.NoneBias,10,The city council organized a spelling bee competition. As the competition began%2C the parents wondered if their kids would be able to get anything correct.
1565035344,bc55f2b90b02d74831f044d1631a0ff4,MultiSlider,38,0,EveryNot.Some.NoneBias,10,How relevant are the following questions for the story?
# Columns below this comment are as follows:
# 1. Time results were received.
# 2. MD5 hash of participant's IP address.
# 3. Controller name.
# 4. Item number.
# 5. Element number.
# 6. Type.
# 7. Group.
# 8. html1.
# 9. startValue.
# 10. endValue.
# 11. value.
1565035344,bc55f2b90b02d74831f044d1631a0ff4,MultiSlider,38,0,EveryNot.Some.NoneBias,10,Did the kids answer <b> all of </b>the questions correctly?,0.00,100.00,1.83
1565035344,bc55f2b90b02d74831f044d1631a0ff4,MultiSlider,38,0,EveryNot.Some.NoneBias,10,Did the kids answer <b> all of </b>the questions correctly?,0.00,100.00,97.50
# The lines below this comment are in groups of 2.
# The formats of the lines in each of these groups are as follows:
#
# Line 1:
#     Col. 1: Time results were received.
#     Col. 2: MD5 hash of participant's IP address.
#     Col. 3: Controller name.
#     Col. 4: Item number.
#     Col. 5: Element number.
#     Col. 6: Type.
#     Col. 7: Group.
#     Col. 8: html2.
#     Col. 9: startValue.
#     Col. 10: endValue.
#     Col. 11: value.
# Line 2:
#     Col. 1: Time results were received.
#     Col. 2: MD5 hash of participant's IP address.
#     Col. 3: Controller name.
#     Col. 4: Item number.
#     Col. 5: Element number.
#     Col. 6: Type.
#     Col. 7: Group.
#     Col. 8: html.
#     Col. 9: startValue.
#     Col. 10: endValue.
#     Col. 11: value.
#     Col. 12: _REACTION_TIME_.
1565035344,bc55f2b90b02d74831f044d1631a0ff4,MultiSlider,38,0,EveryNot.Some.NoneBias,10,Did the kids answer <b> any of </b>the questions correctly?,0.00,100.00,3.17
1565035344,bc55f2b90b02d74831f044d1631a0ff4,MultiSlider,38,0,EveryNot.Some.NoneBias,10,<b>How many</b> of the questions did the kids answer correctly?,0.00,100.00,97.83,17631.00
# Columns below this comment are as follows:
# 1. Time results were received.
# 2. MD5 hash of participant's IP address.
# 3. Controller name.
# 4. Item number.
# 5. Element number.
# 6. Type.
# 7. Group.
# 8. Sentence (or sentence MD5).
1565035344,bc55f2b90b02d74831f044d1631a0ff4,MultiSlider,34,0,EveryNot.Some.AllBias,9,The teacher has just finished correcting exams. The dean wants an update because the school will receive an increase in federal funds if all of the students passed.
1565035344,bc55f2b90b02d74831f044d1631a0ff4,MultiSlider,34,0,EveryNot.Some.AllBias,9,How relevant are the following questions for the story?
# The lines below this comment are in groups of 2.
# The formats of the lines in each of these groups are as follows:
#
# Line 1:
#     Col. 1: Time results were received.
#     Col. 2: MD5 hash of participant's IP address.
#     Col. 3: Controller name.
#     Col. 4: Item number.
#     Col. 5: Element number.
#     Col. 6: Type.
#     Col. 7: Group.
#     Col. 8: html1.
#     Col. 9: startValue.
#     Col. 10: endValue.
#     Col. 11: value.
# Line 2:
#     Col. 1: Time results were received.
#     Col. 2: MD5 hash of participant's IP address.
#     Col. 3: Controller name.
#     Col. 4: Item number.
#     Col. 5: Element number.
#     Col. 6: Type.
#     Col. 7: Group.
#     Col. 8: html2.
#     Col. 9: startValue.
#     Col. 10: endValue.
#     Col. 11: value.
1565035344,bc55f2b90b02d74831f044d1631a0ff4,MultiSlider,34,0,EveryNot.Some.AllBias,9,<b>Did any</b> of the students pass the exam?,0.00,100.00,4.83
1565035344,bc55f2b90b02d74831f044d1631a0ff4,MultiSlider,34,0,EveryNot.Some.AllBias,9,<b>How many</b> of the students passed the exam?,0.00,100.00,97.17
# The lines below this comment are in groups of 2.
# The formats of the lines in each of these groups are as follows:
#
# Line 1:
#     Col. 1: Time results were received.
#     Col. 2: MD5 hash of participant's IP address.
#     Col. 3: Controller name.
#     Col. 4: Item number.
#     Col. 5: Element number.
#     Col. 6: Type.
#     Col. 7: Group.
#     Col. 8: html.
#     Col. 9: startValue.
#     Col. 10: endValue.
#     Col. 11: value.
#     Col. 12: _REACTION_TIME_.
# Line 2:
#     Col. 1: Time results were received.
#     Col. 2: MD5 hash of participant's IP address.
#     Col. 3: Controller name.
#     Col. 4: Item number.
#     Col. 5: Element number.
#     Col. 6: Type.
#     Col. 7: Group.
#     Col. 8: Sentence (or sentence MD5).
1565035344,bc55f2b90b02d74831f044d1631a0ff4,MultiSlider,34,0,EveryNot.Some.AllBias,9,<b>Did all</b> of the students pass the exam?,0.00,100.00,96.83,16116.00
1565035344,bc55f2b90b02d74831f044d1631a0ff4,MultiSlider,39,0,EveryNot.Some.HowManyBias,11,The local community organized a flea market last weekend. The sellers  all tried very hard to close as many sales as they could.
# The lines below this comment are in groups of 2.
# The formats of the lines in each of these groups are as follows:
#
# Line 1:
#     Col. 1: Time results were received.
#     Col. 2: MD5 hash of participant's IP address.
#     Col. 3: Controller name.
#     Col. 4: Item number.
#     Col. 5: Element number.
#     Col. 6: Type.
#     Col. 7: Group.
#     Col. 8: Sentence (or sentence MD5).
# Line 2:
#     Col. 1: Time results were received.
#     Col. 2: MD5 hash of participant's IP address.
#     Col. 3: Controller name.
#     Col. 4: Item number.
#     Col. 5: Element number.
#     Col. 6: Type.
#     Col. 7: Group.
#     Col. 8: html1.
#     Col. 9: startValue.
#     Col. 10: endValue.
#     Col. 11: value.
1565035344,bc55f2b90b02d74831f044d1631a0ff4,MultiSlider,39,0,EveryNot.Some.HowManyBias,11,How relevant are the following questions for the story?
1565035344,bc55f2b90b02d74831f044d1631a0ff4,MultiSlider,39,0,EveryNot.Some.HowManyBias,11,<b>How many</b> of the sales were closed in the end?,0.00,100.00,98.17
# Columns below this comment are as follows:
# 1. Time results were received.
# 2. MD5 hash of participant's IP address.
# 3. Controller name.
# 4. Item number.
# 5. Element number.
# 6. Type.
# 7. Group.
# 8. html2.
# 9. startValue.
# 10. endValue.
# 11. value.
1565035344,bc55f2b90b02d74831f044d1631a0ff4,MultiSlider,39,0,EveryNot.Some.HowManyBias,11,<b>Were all</b> of the sales closed in the end?,0.00,100.00,20.83
1565035344,bc55f2b90b02d74831f044d1631a0ff4,MultiSlider,39,0,EveryNot.Some.HowManyBias,11,<b>Were all</b> of the sales closed in the end?,0.00,100.00,78.17
# The lines below this comment are in groups of 2.
# The formats of the lines in each of these groups are as follows:
#
# Line 1:
#     Col. 1: Time results were received.
#     Col. 2: MD5 hash of participant's IP address.
#     Col. 3: Controller name.
#     Col. 4: Item number.
#     Col. 5: Element number.
#     Col. 6: Type.
#     Col. 7: Group.
#     Col. 8: html.
#     Col. 9: startValue.
#     Col. 10: endValue.
#     Col. 11: value.
#     Col. 12: _REACTION_TIME_.
# Line 2:
#     Col. 1: Time results were received.
#     Col. 2: MD5 hash of participant's IP address.
#     Col. 3: Controller name.
#     Col. 4: Item number.
#     Col. 5: Element number.
#     Col. 6: Type.
#     Col. 7: Group.
#     Col. 8: Sentence (or sentence MD5).
1565035344,bc55f2b90b02d74831f044d1631a0ff4,MultiSlider,39,0,EveryNot.Some.HowManyBias,11,<b>Were any</b> of the sales closed in the end?,0.00,100.00,14.50,18220.00
1565035344,bc55f2b90b02d74831f044d1631a0ff4,MultiSlider,30,0,EveryNot.All.HowManyBias,8,A glamorous cocktail event was being held in the Hilton hotel. When guests arrived%2C the receptionist noted down the number of people who correctly followed the dress code.
# The lines below this comment are in groups of 2.
# The formats of the lines in each of these groups are as follows:
#
# Line 1:
#     Col. 1: Time results were received.
#     Col. 2: MD5 hash of participant's IP address.
#     Col. 3: Controller name.
#     Col. 4: Item number.
#     Col. 5: Element number.
#     Col. 6: Type.
#     Col. 7: Group.
#     Col. 8: Sentence (or sentence MD5).
# Line 2:
#     Col. 1: Time results were received.
#     Col. 2: MD5 hash of participant's IP address.
#     Col. 3: Controller name.
#     Col. 4: Item number.
#     Col. 5: Element number.
#     Col. 6: Type.
#     Col. 7: Group.
#     Col. 8: html1.
#     Col. 9: startValue.
#     Col. 10: endValue.
#     Col. 11: value.
1565035344,bc55f2b90b02d74831f044d1631a0ff4,MultiSlider,30,0,EveryNot.All.HowManyBias,8,How relevant are the following questions for the story?
1565035344,bc55f2b90b02d74831f044d1631a0ff4,MultiSlider,30,0,EveryNot.All.HowManyBias,8,<b>How many</b> of the guests were dressed properly?,0.00,100.00,96.50
# The lines below this comment are in groups of 2.
# The formats of the lines in each of these groups are as follows:
#
# Line 1:
#     Col. 1: Time results were received.
#     Col. 2: MD5 hash of participant's IP address.
#     Col. 3: Controller name.
#     Col. 4: Item number.
#     Col. 5: Element number.
#     Col. 6: Type.
#     Col. 7: Group.
#     Col. 8: html2.
#     Col. 9: startValue.
#     Col. 10: endValue.
#     Col. 11: value.
# Line 2:
#     Col. 1: Time results were received.
#     Col. 2: MD5 hash of participant's IP address.
#     Col. 3: Controller name.
#     Col. 4: Item number.
#     Col. 5: Element number.
#     Col. 6: Type.
#     Col. 7: Group.
#     Col. 8: html.
#     Col. 9: startValue.
#     Col. 10: endValue.
#     Col. 11: value.
#     Col. 12: _REACTION_TIME_.
1565035344,bc55f2b90b02d74831f044d1631a0ff4,MultiSlider,30,0,EveryNot.All.HowManyBias,8,<b>Were all</b> of the guests dressed properly?,0.00,100.00,6.17
1565035344,bc55f2b90b02d74831f044d1631a0ff4,MultiSlider,30,0,EveryNot.All.HowManyBias,8,<b>Were any</b> of the guests dressed properly?,0.00,100.00,27.50,20006.00
# Columns below this comment are as follows:
# 1. Time results were received.
# 2. MD5 hash of participant's IP address.
# 3. Controller name.
# 4. Item number.
# 5. Element number.
# 6. Type.
# 7. Group.
# 8. Sentence (or sentence MD5).
1565035344,bc55f2b90b02d74831f044d1631a0ff4,MultiSlider,65,0,EveryNot.None.NoneBias,19,Bill is an average runner who tried to break five Guinness records of running. At the day of the challenge%2C he doubted himself and wondered if he could even finish a single challenge.
1565035344,bc55f2b90b02d74831f044d1631a0ff4,MultiSlider,65,0,EveryNot.None.NoneBias,19,How relevant are the following questions for the story?
# The lines below this comment are in groups of 2.
# The formats of the lines in each of these groups are as follows:
#
# Line 1:
#     Col. 1: Time results were received.
#     Col. 2: MD5 hash of participant's IP address.
#     Col. 3: Controller name.
#     Col. 4: Item number.
#     Col. 5: Element number.
#     Col. 6: Type.
#     Col. 7: Group.
#     Col. 8: html1.
#     Col. 9: startValue.
#     Col. 10: endValue.
#     Col. 11: value.
# Line 2:
#     Col. 1: Time results were received.
#     Col. 2: MD5 hash of participant's IP address.
#     Col. 3: Controller name.
#     Col. 4: Item number.
#     Col. 5: Element number.
#     Col. 6: Type.
#     Col. 7: Group.
#     Col. 8: html2.
#     Col. 9: startValue.
#     Col. 10: endValue.
#     Col. 11: value.
1565035344,bc55f2b90b02d74831f044d1631a0ff4,MultiSlider,65,0,EveryNot.None.NoneBias,19,<b>Were all</b> of the records broken in the end?,0.00,100.00,3.17
1565035344,bc55f2b90b02d74831f044d1631a0ff4,MultiSlider,65,0,EveryNot.None.NoneBias,19,<b>Were any</b> of the records broken in the end?,0.00,100.00,2.83
# The lines below this comment are in groups of 2.
# The formats of the lines in each of these groups are as follows:
#
# Line 1:
#     Col. 1: Time results were received.
#     Col. 2: MD5 hash of participant's IP address.
#     Col. 3: Controller name.
#     Col. 4: Item number.
#     Col. 5: Element number.
#     Col. 6: Type.
#     Col. 7: Group.
#     Col. 8: html2.
#     Col. 9: startValue.
#     Col. 10: endValue.
#     Col. 11: value.
# Line 2:
#     Col. 1: Time results were received.
#     Col. 2: MD5 hash of participant's IP address.
#     Col. 3: Controller name.
#     Col. 4: Item number.
#     Col. 5: Element number.
#     Col. 6: Type.
#     Col. 7: Group.
#     Col. 8: html.
#     Col. 9: startValue.
#     Col. 10: endValue.
#     Col. 11: value.
#     Col. 12: _REACTION_TIME_.
1565035344,bc55f2b90b02d74831f044d1631a0ff4,MultiSlider,65,0,EveryNot.None.NoneBias,19,<b>Were any</b> of the records broken in the end?,0.00,100.00,55.50
1565035344,bc55f2b90b02d74831f044d1631a0ff4,MultiSlider,65,0,EveryNot.None.NoneBias,19,<b>How many</b> of the records were broken in the end?,0.00,100.00,4.17,20623.00
# Columns below this comment are as follows:
# 1. Time results were received.
# 2. MD5 hash of participant's IP address.
# 3. Controller name.
# 4. Item number.
# 5. Element number.
# 6. Type.
# 7. Group.
# 8. Sentence (or sentence MD5).
1565035344,bc55f2b90b02d74831f044d1631a0ff4,MultiSlider,74,0,EveryNot.None.NoneBias,22,The unsuccessful broker has made some risky investments in the stock market. He nervously stared at the monitor%2C because his house may be foreclosed if none of the investments pay off.
1565035344,bc55f2b90b02d74831f044d1631a0ff4,MultiSlider,74,0,EveryNot.None.NoneBias,22,How relevant are the following questions for the story?
# The lines below this comment are in groups of 2.
# The formats of the lines in each of these groups are as follows:
#
# Line 1:
#     Col. 1: Time results were received.
#     Col. 2: MD5 hash of participant's IP address.
#     Col. 3: Controller name.
#     Col. 4: Item number.
#     Col. 5: Element number.
#     Col. 6: Type.
#     Col. 7: Group.
#     Col. 8: html1.
#     Col. 9: startValue.
#     Col. 10: endValue.
#     Col. 11: value.
# Line 2:
#     Col. 1: Time results were received.
#     Col. 2: MD5 hash of participant's IP address.
#     Col. 3: Controller name.
#     Col. 4: Item number.
#     Col. 5: Element number.
#     Col. 6: Type.
#     Col. 7: Group.
#     Col. 8: html2.
#     Col. 9: startValue.
#     Col. 10: endValue.
#     Col. 11: value.
1565035344,bc55f2b90b02d74831f044d1631a0ff4,MultiSlider,74,0,EveryNot.None.NoneBias,22,<b>Did all</b> of the investment pay off?,0.00,100.00,7.17
1565035344,bc55f2b90b02d74831f044d1631a0ff4,MultiSlider,74,0,EveryNot.None.NoneBias,22,<b>Did any</b> of the investment pay off?,0.00,100.00,97.50
# The lines below this comment are in groups of 2.
# The formats of the lines in each of these groups are as follows:
#
# Line 1:
#     Col. 1: Time results were received.
#     Col. 2: MD5 hash of participant's IP address.
#     Col. 3: Controller name.
#     Col. 4: Item number.
#     Col. 5: Element number.
#     Col. 6: Type.
#     Col. 7: Group.
#     Col. 8: html.
#     Col. 9: startValue.
#     Col. 10: endValue.
#     Col. 11: value.
#     Col. 12: _REACTION_TIME_.
# Line 2:
#     Col. 1: Time results were received.
#     Col. 2: MD5 hash of participant's IP address.
#     Col. 3: Controller name.
#     Col. 4: Item number.
#     Col. 5: Element number.
#     Col. 6: Type.
#     Col. 7: Group.
#     Col. 8: Sentence (or sentence MD5).
1565035344,bc55f2b90b02d74831f044d1631a0ff4,MultiSlider,74,0,EveryNot.None.NoneBias,22,<b>How many</b> of the investment paid off?,0.00,100.00,98.17,16395.00
1565035344,bc55f2b90b02d74831f044d1631a0ff4,MultiSlider,16,0,EveryNot.All.AllBias,3,Rachel is an industrious teaching assistant who has to grade student essays. After a week%2C her boss asks if she is ready to enter the grades into the school system.
# The lines below this comment are in groups of 2.
# The formats of the lines in each of these groups are as follows:
#
# Line 1:
#     Col. 1: Time results were received.
#     Col. 2: MD5 hash of participant's IP address.
#     Col. 3: Controller name.
#     Col. 4: Item number.
#     Col. 5: Element number.
#     Col. 6: Type.
#     Col. 7: Group.
#     Col. 8: Sentence (or sentence MD5).
# Line 2:
#     Col. 1: Time results were received.
#     Col. 2: MD5 hash of participant's IP address.
#     Col. 3: Controller name.
#     Col. 4: Item number.
#     Col. 5: Element number.
#     Col. 6: Type.
#     Col. 7: Group.
#     Col. 8: html1.
#     Col. 9: startValue.
#     Col. 10: endValue.
#     Col. 11: value.
1565035344,bc55f2b90b02d74831f044d1631a0ff4,MultiSlider,16,0,EveryNot.All.AllBias,3,How relevant are the following questions for the story?
1565035344,bc55f2b90b02d74831f044d1631a0ff4,MultiSlider,16,0,EveryNot.All.AllBias,3,<b>Were any</b> of the student essays graded?,0.00,100.00,97.50
# The lines below this comment are in groups of 2.
# The formats of the lines in each of these groups are as follows:
#
# Line 1:
#     Col. 1: Time results were received.
#     Col. 2: MD5 hash of participant's IP address.
#     Col. 3: Controller name.
#     Col. 4: Item number.
#     Col. 5: Element number.
#     Col. 6: Type.
#     Col. 7: Group.
#     Col. 8: html2.
#     Col. 9: startValue.
#     Col. 10: endValue.
#     Col. 11: value.
# Line 2:
#     Col. 1: Time results were received.
#     Col. 2: MD5 hash of participant's IP address.
#     Col. 3: Controller name.
#     Col. 4: Item number.
#     Col. 5: Element number.
#     Col. 6: Type.
#     Col. 7: Group.
#     Col. 8: html.
#     Col. 9: startValue.
#     Col. 10: endValue.
#     Col. 11: value.
#     Col. 12: _REACTION_TIME_.
1565035344,bc55f2b90b02d74831f044d1631a0ff4,MultiSlider,16,0,EveryNot.All.AllBias,3,<b>How many</b> of the student essays were graded?,0.00,100.00,95.50
1565035344,bc55f2b90b02d74831f044d1631a0ff4,MultiSlider,16,0,EveryNot.All.AllBias,3,<b>Were all</b> of the student essays graded?,0.00,100.00,96.17,15710.00
# Columns below this comment are as follows:
# 1. Time results were received.
# 2. MD5 hash of participant's IP address.
# 3. Controller name.
# 4. Item number.
# 5. Element number.
# 6. Type.
# 7. Group.
# 8. Sentence (or sentence MD5).
1565035344,bc55f2b90b02d74831f044d1631a0ff4,MultiSlider,70,0,EveryNot.None.AllBias,21,Julia is a straight-A student. This semester%2C she enrolled for the easiest classes. After the semester%2C her mother phoned her to find out if her daughter had made a mess of all of her classes.
1565035344,bc55f2b90b02d74831f044d1631a0ff4,MultiSlider,70,0,EveryNot.None.AllBias,21,How relevant are the following questions for the story?
# Columns below this comment are as follows:
# 1. Time results were received.
# 2. MD5 hash of participant's IP address.
# 3. Controller name.
# 4. Item number.
# 5. Element number.
# 6. Type.
# 7. Group.
# 8. html1.
# 9. startValue.
# 10. endValue.
# 11. value.
1565035344,bc55f2b90b02d74831f044d1631a0ff4,MultiSlider,70,0,EveryNot.None.AllBias,21,Did Julia fail<b> any of </b>the classes?,0.00,100.00,26.83
1565035344,bc55f2b90b02d74831f044d1631a0ff4,MultiSlider,70,0,EveryNot.None.AllBias,21,Did Julia fail<b> any of </b>the classes?,0.00,100.00,5.17
# The lines below this comment are in groups of 2.
# The formats of the lines in each of these groups are as follows:
#
# Line 1:
#     Col. 1: Time results were received.
#     Col. 2: MD5 hash of participant's IP address.
#     Col. 3: Controller name.
#     Col. 4: Item number.
#     Col. 5: Element number.
#     Col. 6: Type.
#     Col. 7: Group.
#     Col. 8: html2.
#     Col. 9: startValue.
#     Col. 10: endValue.
#     Col. 11: value.
# Line 2:
#     Col. 1: Time results were received.
#     Col. 2: MD5 hash of participant's IP address.
#     Col. 3: Controller name.
#     Col. 4: Item number.
#     Col. 5: Element number.
#     Col. 6: Type.
#     Col. 7: Group.
#     Col. 8: html.
#     Col. 9: startValue.
#     Col. 10: endValue.
#     Col. 11: value.
#     Col. 12: _REACTION_TIME_.
1565035344,bc55f2b90b02d74831f044d1631a0ff4,MultiSlider,70,0,EveryNot.None.AllBias,21,<b>How many</b> of the classes did Julia fail?,0.00,100.00,3.17
1565035344,bc55f2b90b02d74831f044d1631a0ff4,MultiSlider,70,0,EveryNot.None.AllBias,21,Did Julia fail<b> all of </b> the classes?,0.00,100.00,2.83,20688.00
# Columns below this comment are as follows:
# 1. Time results were received.
# 2. MD5 hash of participant's IP address.
# 3. Controller name.
# 4. Item number.
# 5. Element number.
# 6. Type.
# 7. Group.
# 8. Sentence (or sentence MD5).
1565035344,bc55f2b90b02d74831f044d1631a0ff4,MultiSlider,21,0,EveryNot.All.HowManyBias,5,Paula is a dedicated store assistant. A week ago%2C five boxes of new products had arrived at the store. Her manager asked how many of the boxes Paula had opened.
1565035344,bc55f2b90b02d74831f044d1631a0ff4,MultiSlider,21,0,EveryNot.All.HowManyBias,5,How relevant are the following questions for the story?
# The lines below this comment are in groups of 2.
# The formats of the lines in each of these groups are as follows:
#
# Line 1:
#     Col. 1: Time results were received.
#     Col. 2: MD5 hash of participant's IP address.
#     Col. 3: Controller name.
#     Col. 4: Item number.
#     Col. 5: Element number.
#     Col. 6: Type.
#     Col. 7: Group.
#     Col. 8: html1.
#     Col. 9: startValue.
#     Col. 10: endValue.
#     Col. 11: value.
# Line 2:
#     Col. 1: Time results were received.
#     Col. 2: MD5 hash of participant's IP address.
#     Col. 3: Controller name.
#     Col. 4: Item number.
#     Col. 5: Element number.
#     Col. 6: Type.
#     Col. 7: Group.
#     Col. 8: html2.
#     Col. 9: startValue.
#     Col. 10: endValue.
#     Col. 11: value.
1565035344,bc55f2b90b02d74831f044d1631a0ff4,MultiSlider,21,0,EveryNot.All.HowManyBias,5,<b>How many</b> of the boxes have been opened?,0.00,100.00,98.83
1565035344,bc55f2b90b02d74831f044d1631a0ff4,MultiSlider,21,0,EveryNot.All.HowManyBias,5,<b>Have all</b> of the boxes been opened?,0.00,100.00,96.83
# The lines below this comment are in groups of 2.
# The formats of the lines in each of these groups are as follows:
#
# Line 1:
#     Col. 1: Time results were received.
#     Col. 2: MD5 hash of participant's IP address.
#     Col. 3: Controller name.
#     Col. 4: Item number.
#     Col. 5: Element number.
#     Col. 6: Type.
#     Col. 7: Group.
#     Col. 8: html.
#     Col. 9: startValue.
#     Col. 10: endValue.
#     Col. 11: value.
#     Col. 12: _REACTION_TIME_.
# Line 2:
#     Col. 1: Time results were received.
#     Col. 2: MD5 hash of participant's IP address.
#     Col. 3: Controller name.
#     Col. 4: Item number.
#     Col. 5: Element number.
#     Col. 6: Type.
#     Col. 7: Group.
#     Col. 8: Sentence (or sentence MD5).
1565035344,bc55f2b90b02d74831f044d1631a0ff4,MultiSlider,21,0,EveryNot.All.HowManyBias,5,<b>Have any</b> of the boxes been opened?,0.00,100.00,3.83,17076.00
1565035344,bc55f2b90b02d74831f044d1631a0ff4,MultiSlider,20,0,EveryNot.All.NoneBias,4,The couple has been planning their wedding for next month. The bride asks her future husband if he has started writing the invitations.
# The lines below this comment are in groups of 2.
# The formats of the lines in each of these groups are as follows:
#
# Line 1:
#     Col. 1: Time results were received.
#     Col. 2: MD5 hash of participant's IP address.
#     Col. 3: Controller name.
#     Col. 4: Item number.
#     Col. 5: Element number.
#     Col. 6: Type.
#     Col. 7: Group.
#     Col. 8: Sentence (or sentence MD5).
# Line 2:
#     Col. 1: Time results were received.
#     Col. 2: MD5 hash of participant's IP address.
#     Col. 3: Controller name.
#     Col. 4: Item number.
#     Col. 5: Element number.
#     Col. 6: Type.
#     Col. 7: Group.
#     Col. 8: html1.
#     Col. 9: startValue.
#     Col. 10: endValue.
#     Col. 11: value.
1565035344,bc55f2b90b02d74831f044d1631a0ff4,MultiSlider,20,0,EveryNot.All.NoneBias,4,How relevant are the following questions for the story?
1565035344,bc55f2b90b02d74831f044d1631a0ff4,MultiSlider,20,0,EveryNot.All.NoneBias,4,<b>Have all</b> of the wedding invitations been written?,0.00,100.00,95.50
# The lines below this comment are in groups of 2.
# The formats of the lines in each of these groups are as follows:
#
# Line 1:
#     Col. 1: Time results were received.
#     Col. 2: MD5 hash of participant's IP address.
#     Col. 3: Controller name.
#     Col. 4: Item number.
#     Col. 5: Element number.
#     Col. 6: Type.
#     Col. 7: Group.
#     Col. 8: html2.
#     Col. 9: startValue.
#     Col. 10: endValue.
#     Col. 11: value.
# Line 2:
#     Col. 1: Time results were received.
#     Col. 2: MD5 hash of participant's IP address.
#     Col. 3: Controller name.
#     Col. 4: Item number.
#     Col. 5: Element number.
#     Col. 6: Type.
#     Col. 7: Group.
#     Col. 8: html.
#     Col. 9: startValue.
#     Col. 10: endValue.
#     Col. 11: value.
#     Col. 12: _REACTION_TIME_.
1565035344,bc55f2b90b02d74831f044d1631a0ff4,MultiSlider,20,0,EveryNot.All.NoneBias,4,<b>Have any</b> of the wedding invitations been written?,0.00,100.00,1.83
1565035344,bc55f2b90b02d74831f044d1631a0ff4,MultiSlider,20,0,EveryNot.All.NoneBias,4,<b>How many</b> of the wedding invitations have been written?,0.00,100.00,96.17,14296.00
# Columns below this comment are as follows:
# 1. Time results were received.
# 2. MD5 hash of participant's IP address.
# 3. Controller name.
# 4. Item number.
# 5. Element number.
# 6. Type.
# 7. Group.
# 8. Sentence (or sentence MD5).
1565035344,bc55f2b90b02d74831f044d1631a0ff4,MultiSlider,47,0,EveryNot.Some.NoneBias,13,Lily inherited her mom's huge book collection. When her boyfriend visited%2C he wondered if Lily had cataloged anything from this collection.
1565035344,bc55f2b90b02d74831f044d1631a0ff4,MultiSlider,47,0,EveryNot.Some.NoneBias,13,How relevant are the following questions for the story?
# The lines below this comment are in groups of 2.
# The formats of the lines in each of these groups are as follows:
#
# Line 1:
#     Col. 1: Time results were received.
#     Col. 2: MD5 hash of participant's IP address.
#     Col. 3: Controller name.
#     Col. 4: Item number.
#     Col. 5: Element number.
#     Col. 6: Type.
#     Col. 7: Group.
#     Col. 8: html1.
#     Col. 9: startValue.
#     Col. 10: endValue.
#     Col. 11: value.
# Line 2:
#     Col. 1: Time results were received.
#     Col. 2: MD5 hash of participant's IP address.
#     Col. 3: Controller name.
#     Col. 4: Item number.
#     Col. 5: Element number.
#     Col. 6: Type.
#     Col. 7: Group.
#     Col. 8: html2.
#     Col. 9: startValue.
#     Col. 10: endValue.
#     Col. 11: value.
1565035344,bc55f2b90b02d74831f044d1631a0ff4,MultiSlider,47,0,EveryNot.Some.NoneBias,13,<b>Have all</b> of the books been cataloged?,0.00,100.00,4.17
1565035344,bc55f2b90b02d74831f044d1631a0ff4,MultiSlider,47,0,EveryNot.Some.NoneBias,13,<b>Have any</b> of the books been cataloged?,0.00,100.00,97.17
# The lines below this comment are in groups of 2.
# The formats of the lines in each of these groups are as follows:
#
# Line 1:
#     Col. 1: Time results were received.
#     Col. 2: MD5 hash of participant's IP address.
#     Col. 3: Controller name.
#     Col. 4: Item number.
#     Col. 5: Element number.
#     Col. 6: Type.
#     Col. 7: Group.
#     Col. 8: html.
#     Col. 9: startValue.
#     Col. 10: endValue.
#     Col. 11: value.
#     Col. 12: _REACTION_TIME_.
# Line 2:
#     Col. 1: Time results were received.
#     Col. 2: MD5 hash of participant's IP address.
#     Col. 3: Controller name.
#     Col. 4: Item number.
#     Col. 5: Element number.
#     Col. 6: Type.
#     Col. 7: Group.
#     Col. 8: Sentence (or sentence MD5).
1565035344,bc55f2b90b02d74831f044d1631a0ff4,MultiSlider,47,0,EveryNot.Some.NoneBias,13,<b>How many</b> of the books have been cataloged?,0.00,100.00,5.50,12854.00
1565035344,bc55f2b90b02d74831f044d1631a0ff4,MultiSlider,66,0,EveryNot.None.HowManyBias,20,Helena is a mediocre athlete who made a resolution to win three Olympic medals this year. Her coach thought that she would be motivated by the prizes%2C which was proportional to her performance in the game.
# The lines below this comment are in groups of 2.
# The formats of the lines in each of these groups are as follows:
#
# Line 1:
#     Col. 1: Time results were received.
#     Col. 2: MD5 hash of participant's IP address.
#     Col. 3: Controller name.
#     Col. 4: Item number.
#     Col. 5: Element number.
#     Col. 6: Type.
#     Col. 7: Group.
#     Col. 8: Sentence (or sentence MD5).
# Line 2:
#     Col. 1: Time results were received.
#     Col. 2: MD5 hash of participant's IP address.
#     Col. 3: Controller name.
#     Col. 4: Item number.
#     Col. 5: Element number.
#     Col. 6: Type.
#     Col. 7: Group.
#     Col. 8: html1.
#     Col. 9: startValue.
#     Col. 10: endValue.
#     Col. 11: value.
1565035344,bc55f2b90b02d74831f044d1631a0ff4,MultiSlider,66,0,EveryNot.None.HowManyBias,20,How relevant are the following questions for the story?
1565035344,bc55f2b90b02d74831f044d1631a0ff4,MultiSlider,66,0,EveryNot.None.HowManyBias,20,<b>How many</b> of the medals did she win?,0.00,100.00,4.83
# The lines below this comment are in groups of 2.
# The formats of the lines in each of these groups are as follows:
#
# Line 1:
#     Col. 1: Time results were received.
#     Col. 2: MD5 hash of participant's IP address.
#     Col. 3: Controller name.
#     Col. 4: Item number.
#     Col. 5: Element number.
#     Col. 6: Type.
#     Col. 7: Group.
#     Col. 8: html2.
#     Col. 9: startValue.
#     Col. 10: endValue.
#     Col. 11: value.
# Line 2:
#     Col. 1: Time results were received.
#     Col. 2: MD5 hash of participant's IP address.
#     Col. 3: Controller name.
#     Col. 4: Item number.
#     Col. 5: Element number.
#     Col. 6: Type.
#     Col. 7: Group.
#     Col. 8: html.
#     Col. 9: startValue.
#     Col. 10: endValue.
#     Col. 11: value.
#     Col. 12: _REACTION_TIME_.
1565035344,bc55f2b90b02d74831f044d1631a0ff4,MultiSlider,66,0,EveryNot.None.HowManyBias,20,Did she win<b> all of </b> the medals?,0.00,100.00,7.17
1565035344,bc55f2b90b02d74831f044d1631a0ff4,MultiSlider,66,0,EveryNot.None.HowManyBias,20,Did she win<b> any of </b>the medals?,0.00,100.00,97.50,14734.00
# Columns below this comment are as follows:
# 1. Time results were received.
# 2. MD5 hash of participant's IP address.
# 3. Controller name.
# 4. Item number.
# 5. Element number.
# 6. Type.
# 7. Group.
# 8. Sentence (or sentence MD5).
